subnum,block,trial,type,stim,time0,resp1,rt1,corr1,resp2,rt2,corr2,tooslow
shane,1,1,1,4,7540,2,736,1,NA,0,0,1
shane,1,2,1,3,9144,1,432,1,NA,0,0,1
shane,1,3,1,2,10650,2,1127,1,NA,0,0,1
shane,1,4,1,1,12821,1,435,1,NA,0,0,1
shane,1,5,1,4,14312,2,446,1,NA,0,0,1
shane,1,6,1,2,15976,2,430,1,NA,0,0,1
shane,1,7,1,1,17566,1,496,1,NA,0,0,1
shane,1,8,1,3,19031,2,498,0,NA,0,0,1
shane,1,9,1,1,20559,1,409,1,NA,0,0,1
shane,1,10,1,2,22059,2,489,1,NA,0,0,1
shane,1,11,1,3,23632,1,417,1,NA,0,0,1
shane,1,12,1,4,25091,2,494,1,NA,0,0,1
shane,1,13,1,1,26704,1,445,1,NA,0,0,1
shane,1,14,1,4,27987,2,551,1,NA,0,0,1
shane,1,15,1,2,29576,2,751,1,NA,0,0,1
shane,1,16,1,3,31507,1,452,1,NA,0,0,1
shane,1,17,1,2,33038,2,602,1,NA,0,0,1
shane,1,18,1,4,34587,2,544,1,NA,0,0,1
shane,1,19,1,1,36428,1,497,1,NA,0,0,1
shane,1,20,1,3,37776,1,632,1,NA,0,0,1
shane,1,21,1,1,39524,1,387,1,NA,0,0,1
shane,1,22,1,3,41146,1,448,1,NA,0,0,1
shane,1,23,1,4,42622,2,542,1,NA,0,0,1
shane,1,24,1,2,44409,2,718,1,NA,0,0,1
shane,1,25,1,4,46349,2,514,1,NA,0,0,1
shane,2,1,2,4,50489,NA,0,0,0,1156,1,1
shane,2,2,2,2,52669,NA,0,0,9,504,1,1
shane,2,3,2,3,54281,NA,0,0,0,566,1,1
shane,2,4,2,1,55707,NA,0,0,9,605,1,1
shane,2,5,2,4,57599,NA,0,0,0,678,1,1
shane,2,6,2,3,59189,NA,0,0,9,807,0,1
shane,2,7,2,2,60998,NA,0,0,9,587,1,1
shane,2,8,2,1,62632,NA,0,0,9,456,1,1
shane,2,9,2,3,63963,NA,0,0,0,490,1,1
shane,2,10,2,4,65361,NA,0,0,0,359,1,1
shane,2,11,2,2,66591,NA,0,0,9,550,1,1
shane,2,12,2,1,68249,NA,0,0,9,440,1,1
shane,2,13,2,2,69748,NA,0,0,9,436,1,1
shane,2,14,2,4,71124,NA,0,0,0,451,1,1
shane,2,15,2,3,72821,NA,0,0,0,545,1,1
shane,2,16,2,1,74424,NA,0,0,9,1041,1,1
shane,2,17,2,4,76640,NA,0,0,0,680,1,1
shane,2,18,2,3,78431,NA,0,0,0,422,1,1
shane,2,19,2,2,79702,NA,0,0,9,634,1,1
shane,2,20,2,1,81516,NA,0,0,9,466,1,1
shane,2,21,2,3,83194,NA,0,0,0,604,1,1
shane,2,22,2,1,84741,NA,0,0,0,627,0,1
shane,2,23,2,2,86592,NA,0,0,9,539,1,1
shane,2,24,2,4,88169,NA,0,0,0,652,1,1
shane,2,25,2,3,89733,NA,0,0,0,545,1,1
shane,3,1,3,3,95304,1,1046,1,0,4678,1,1
shane,3,2,3,4,100879,2,1095,1,0,1136,1,1
shane,3,3,3,2,103138,1,908,0,9,907,1,1
shane,3,4,3,1,104861,2,963,0,9,1036,1,1
shane,3,5,3,3,106997,1,1769,1,0,1787,1,1
shane,3,6,3,4,109965,2,2441,1,0,2556,1,1
shane,3,7,3,2,113430,2,2243,1,9,1326,1,1
shane,3,8,3,1,116758,1,1048,1,9,575,1,1
shane,3,9,3,3,118933,1,991,1,0,774,1,1
shane,3,10,3,2,121009,2,1914,1,9,852,1,1
shane,3,11,3,1,124206,1,459,1,9,765,1,1
shane,3,12,3,4,125845,2,685,1,0,703,1,1
shane,3,13,3,3,127358,1,731,1,0,731,1,1
shane,3,14,3,2,129052,1,603,0,9,636,1,1
shane,3,15,3,1,130909,2,357,0,9,391,1,1
shane,3,16,3,4,132533,2,1451,1,0,1451,1,1
shane,3,17,3,2,134866,2,2958,1,9,2397,1,1
shane,3,18,3,3,138968,1,1719,1,0,1904,1,1
shane,3,19,3,1,142132,1,874,1,0,916,0,1
shane,3,20,3,4,143917,2,2089,1,0,1570,1,1
shane,3,21,3,2,146860,1,825,0,9,859,1,1
shane,3,22,3,1,148758,1,1433,1,9,968,1,1
shane,3,23,3,4,151183,2,1026,1,0,755,1,1
shane,3,24,3,3,153218,1,1399,1,0,2273,1,1
shane,3,25,3,1,156563,1,993,1,9,1539,1,1
shane,4,1,1,4,184491,2,598,1,NA,0,0,1
shane,4,2,1,2,186017,2,429,1,NA,0,0,1
shane,4,3,1,1,187307,1,408,1,NA,0,0,1
shane,4,4,1,3,188797,1,637,1,NA,0,0,1
shane,4,5,1,1,190514,1,397,1,NA,0,0,1
shane,4,6,1,2,192106,2,490,1,NA,0,0,1
shane,4,7,1,4,193701,2,407,1,NA,0,0,1
shane,4,8,1,3,195201,1,518,1,NA,0,0,1
shane,4,9,1,4,196962,2,458,1,NA,0,0,1
shane,4,10,1,2,198319,2,360,1,NA,0,0,1
shane,4,11,1,1,199876,1,393,1,NA,0,0,1
shane,4,12,1,3,201372,1,489,1,NA,0,0,1
shane,4,13,1,2,203061,2,453,1,NA,0,0,1
shane,4,14,1,4,204604,2,366,1,NA,0,0,1
shane,4,15,1,1,205808,1,546,1,NA,0,0,1
shane,4,16,1,3,207462,1,433,1,NA,0,0,1
shane,4,17,1,2,209155,2,448,1,NA,0,0,1
shane,4,18,1,1,210497,1,490,1,NA,0,0,1
shane,4,19,1,3,212264,1,587,1,NA,0,0,1
shane,4,20,1,4,213754,2,506,1,NA,0,0,1
shane,4,21,1,1,215273,1,541,1,NA,0,0,1
shane,4,22,1,2,216775,2,404,1,NA,0,0,1
shane,4,23,1,4,218383,2,490,1,NA,0,0,1
shane,4,24,1,3,219922,1,369,1,NA,0,0,1
shane,4,25,1,1,221363,1,470,1,NA,0,0,1
shane,5,1,2,2,225450,NA,0,0,9,810,1,1
shane,5,2,2,4,227424,NA,0,0,0,445,1,1
shane,5,3,2,1,228736,NA,0,0,9,422,1,1
shane,5,4,2,3,230081,NA,0,0,0,402,1,1
shane,5,5,2,1,231759,NA,0,0,9,574,1,1
shane,5,6,2,2,233519,NA,0,0,9,373,1,1
shane,5,7,2,4,235017,NA,0,0,0,457,1,1
shane,5,8,2,3,236294,NA,0,0,0,437,1,1
shane,5,9,2,4,238032,NA,0,0,0,320,1,1
shane,5,10,2,2,239294,NA,0,0,9,473,1,1
shane,5,11,2,1,240742,NA,0,0,9,478,1,1
shane,5,12,2,3,242186,NA,0,0,0,415,1,1
shane,5,13,2,2,243635,NA,0,0,0,416,0,1
shane,5,14,2,1,244963,NA,0,0,9,749,1,1
shane,5,15,2,4,246731,NA,0,0,0,659,1,1
shane,5,16,2,3,248309,NA,0,0,0,556,1,1
shane,5,17,2,1,250000,NA,0,0,9,624,1,1
shane,5,18,2,2,251634,NA,0,0,9,290,1,1
shane,5,19,2,3,252822,NA,0,0,0,455,1,1
shane,5,20,2,4,254531,NA,0,0,0,499,1,1
shane,5,21,2,2,256328,NA,0,0,9,536,1,1
shane,5,22,2,1,258135,NA,0,0,9,426,1,1
shane,5,23,2,3,259714,NA,0,0,0,374,1,1
shane,5,24,2,4,261205,NA,0,0,0,335,1,1
shane,5,25,2,3,262476,NA,0,0,9,428,0,1
shane,6,1,3,4,265728,2,977,1,0,1041,1,1
shane,6,2,3,1,267957,1,567,1,9,566,1,1
shane,6,3,3,2,269427,1,448,0,9,466,1,1
shane,6,4,3,3,270969,1,608,1,0,785,1,1
shane,6,5,3,2,272655,2,738,1,9,1001,1,1
shane,6,6,3,4,274831,2,779,1,0,778,1,1
shane,6,7,3,1,276837,1,621,1,9,639,1,1
shane,6,8,3,3,278710,2,644,0,9,726,0,1
shane,6,9,3,4,280683,2,987,1,0,986,1,1
shane,6,10,3,2,282901,2,1521,1,9,694,1,1
shane,6,11,3,1,285338,1,718,1,9,735,1,1
shane,6,12,3,3,286946,1,1214,1,0,1263,1,1
shane,6,13,3,4,289048,2,643,1,0,661,1,1
shane,6,14,3,2,290781,1,679,0,9,713,1,1
shane,6,15,3,1,292374,1,991,1,9,1098,1,1
shane,6,16,3,3,294739,1,1182,1,0,1555,1,1
shane,6,17,3,2,297534,1,747,0,9,773,1,1
shane,6,18,3,3,299188,2,634,0,0,651,1,1
shane,6,19,3,1,300674,1,768,1,9,575,1,1
shane,6,20,3,4,302523,2,931,1,0,610,1,1
shane,6,21,3,3,304496,1,1050,1,0,432,1,1
shane,6,22,3,1,306669,1,738,1,9,718,1,1
shane,6,23,3,2,308428,1,855,0,9,881,1,1
shane,6,24,3,4,310224,2,681,1,0,999,1,1
shane,6,25,3,1,312254,1,501,1,9,1025,1,1
shane,7,1,1,2,330958,1,741,0,NA,0,0,1
shane,7,2,1,4,332656,2,848,1,NA,0,0,1
shane,7,3,1,3,334746,1,456,1,NA,0,0,1
shane,7,4,1,1,336425,1,559,1,NA,0,0,1
shane,7,5,1,4,338123,2,479,1,NA,0,0,1
shane,7,6,1,2,339566,1,411,0,NA,0,0,1
shane,7,7,1,1,340908,1,586,1,NA,0,0,1
shane,7,8,1,3,342377,1,689,1,NA,0,0,1
shane,7,9,1,2,344225,2,416,1,NA,0,0,1
shane,7,10,1,4,345842,2,431,1,NA,0,0,1
shane,7,11,1,3,347280,1,469,1,NA,0,0,1
shane,7,12,1,1,348695,1,537,1,NA,0,0,1
shane,7,13,1,3,350469,1,647,1,NA,0,0,1
shane,7,14,1,2,352344,2,486,1,NA,0,0,1
shane,7,15,1,4,353935,2,545,1,NA,0,0,1
shane,7,16,1,1,355674,1,405,1,NA,0,0,1
shane,7,17,1,4,356944,2,543,1,NA,0,0,1
shane,7,18,1,2,358689,1,645,0,NA,0,0,1
shane,7,19,1,1,360402,1,569,1,NA,0,0,1
shane,7,20,1,3,362087,1,496,1,NA,0,0,1
shane,7,21,1,1,363443,1,448,1,NA,0,0,1
shane,7,22,1,4,364858,2,604,1,NA,0,0,1
shane,7,23,1,2,366591,2,532,1,NA,0,0,1
shane,7,24,1,3,368221,1,416,1,NA,0,0,1
shane,7,25,1,4,369469,2,525,1,NA,0,0,1
shane,8,1,2,2,375581,NA,0,0,9,1814,1,1
shane,8,2,2,1,378449,NA,0,0,0,568,0,1
shane,8,3,2,3,379945,NA,0,0,0,606,1,1
shane,8,4,2,4,381632,NA,0,0,0,283,1,1
shane,8,5,2,2,383065,NA,0,0,9,397,1,1
shane,8,6,2,1,384307,NA,0,0,9,421,1,1
shane,8,7,2,4,385797,NA,0,0,0,451,1,1
shane,8,8,2,3,387539,NA,0,0,0,448,1,1
shane,8,9,2,1,388952,NA,0,0,9,427,1,1
shane,8,10,2,3,390369,NA,0,0,9,488,0,1
shane,8,11,2,4,391936,NA,0,0,0,489,1,1
shane,8,12,2,2,393449,NA,0,0,9,471,1,1
shane,8,13,2,3,394747,NA,0,0,0,480,1,1
shane,8,14,2,2,396419,NA,0,0,9,487,1,1
shane,8,15,2,4,398147,NA,0,0,0,618,1,1
shane,8,16,2,1,400050,NA,0,0,0,276,0,1
shane,8,17,2,2,401211,NA,0,0,9,490,1,1
shane,8,18,2,3,402510,NA,0,0,0,628,1,1
shane,8,19,2,4,404272,NA,0,0,0,450,1,1
shane,8,20,2,1,406001,NA,0,0,9,489,1,1
shane,8,21,2,2,407505,NA,0,0,9,589,1,1
shane,8,22,2,3,409012,NA,0,0,0,453,1,1
shane,8,23,2,4,410554,NA,0,0,0,811,1,1
shane,8,24,2,1,412385,NA,0,0,9,529,1,1
shane,8,25,2,4,414002,NA,0,0,0,322,1,1
shane,9,1,3,2,417924,2,1760,1,9,840,1,1
shane,9,2,3,1,420686,1,738,1,9,757,1,1
shane,9,3,3,3,422528,1,1046,1,0,1162,1,1
shane,9,4,3,4,424792,2,989,1,0,803,1,1
shane,9,5,3,1,426896,1,614,1,9,647,1,1
shane,9,6,3,2,428839,1,728,0,0,771,0,1
shane,9,7,3,4,430545,2,1311,1,0,1360,1,1
shane,9,8,3,3,433096,1,520,1,9,568,0,1
shane,9,9,3,2,434769,2,1283,1,9,985,1,1
shane,9,10,3,3,437325,1,1189,1,0,717,1,1
shane,9,11,3,1,439519,1,1036,1,9,636,1,1
shane,9,12,3,4,441584,2,955,1,0,706,1,1
shane,9,13,3,3,443427,1,833,1,0,386,1,1
shane,9,14,3,2,445427,1,860,0,9,707,1,1
shane,9,15,3,1,447274,1,1133,1,9,644,1,1
shane,9,16,3,4,449669,2,633,1,0,816,1,1
shane,9,17,3,3,451294,1,1595,1,0,1216,1,1
shane,9,18,3,4,453997,2,684,1,0,572,1,1
shane,9,19,3,2,455502,1,762,0,9,761,1,1
shane,9,20,3,1,457488,1,1406,1,9,1733,1,1
shane,9,21,3,2,460169,1,1513,0,9,1366,1,1
shane,9,22,3,1,462582,1,1324,1,9,806,1,1
shane,9,23,3,4,464931,2,756,1,0,820,1,1
shane,9,24,3,3,466973,1,2080,1,0,1600,1,1
shane,9,25,3,2,470005,1,1011,0,9,2343,1,1
shane,10,1,1,3,500094,1,673,1,NA,0,0,1
shane,10,2,1,1,501911,1,409,1,NA,0,0,1
shane,10,3,1,2,503384,2,385,1,NA,0,0,1
shane,10,4,1,4,504910,2,364,1,NA,0,0,1
shane,10,5,1,2,506101,1,653,0,NA,0,0,1
shane,10,6,1,3,507843,1,545,1,NA,0,0,1
shane,10,7,1,1,509481,1,475,1,NA,0,0,1
shane,10,8,1,4,510948,2,432,1,NA,0,0,1
shane,10,9,1,3,512493,1,445,1,NA,0,0,1
shane,10,10,1,4,514113,2,807,1,NA,0,0,1
shane,10,11,1,1,515775,1,1489,1,NA,0,0,1
shane,10,12,1,2,518175,2,536,1,NA,0,0,1
shane,10,13,1,1,519765,1,478,1,NA,0,0,1
shane,10,14,1,2,521260,2,490,1,NA,0,0,1
shane,10,15,1,3,522949,1,520,1,NA,0,0,1
shane,10,16,1,4,524527,2,1251,1,NA,0,0,1
shane,10,17,1,3,526844,1,455,1,NA,0,0,1
shane,10,18,1,4,528578,2,493,1,NA,0,0,1
shane,10,19,1,1,530104,1,479,1,NA,0,0,1
shane,10,20,1,2,531391,2,523,1,NA,0,0,1
shane,10,21,1,3,532994,1,399,1,NA,0,0,1
shane,10,22,1,4,534476,2,523,1,NA,0,0,1
shane,10,23,1,1,535910,1,412,1,NA,0,0,1
shane,10,24,1,2,537381,2,514,1,NA,0,0,1
shane,10,25,1,1,538984,1,414,1,NA,0,0,1
shane,11,1,2,2,543464,NA,0,0,9,1212,1,1
shane,11,2,2,1,545740,NA,0,0,9,512,1,1
shane,11,3,2,4,547301,NA,0,0,0,391,1,1
shane,11,4,2,3,548832,NA,0,0,9,544,0,1
shane,11,5,2,4,550477,NA,0,0,0,418,1,1
shane,11,6,2,2,551744,NA,0,0,9,393,1,1
shane,11,7,2,1,553005,NA,0,0,9,497,1,1
shane,11,8,2,3,554564,NA,0,0,0,559,1,1
shane,11,9,2,1,556385,NA,0,0,9,524,1,1
shane,11,10,2,2,557758,NA,0,0,9,580,1,1
shane,11,11,2,3,559202,NA,0,0,0,510,1,1
shane,11,12,2,4,560643,NA,0,0,0,336,1,1
shane,11,13,2,2,562129,NA,0,0,9,488,1,1
shane,11,14,2,1,563805,NA,0,0,9,918,1,1
shane,11,15,2,3,565604,NA,0,0,0,469,1,1
shane,11,16,2,4,567313,NA,0,0,0,371,1,1
shane,11,17,2,1,568878,NA,0,0,9,366,1,1
shane,11,18,2,3,570381,NA,0,0,0,539,1,1
shane,11,19,2,4,572126,NA,0,0,0,417,1,1
shane,11,20,2,2,573787,NA,0,0,0,351,0,1
shane,11,21,2,3,575141,NA,0,0,0,445,1,1
shane,11,22,2,4,576498,NA,0,0,0,641,1,1
shane,11,23,2,1,578143,NA,0,0,9,695,1,1
shane,11,24,2,2,580094,NA,0,0,9,421,1,1
shane,11,25,2,1,581389,NA,0,0,9,421,1,1
shane,12,1,3,2,584598,2,2400,1,9,1897,1,1
shane,12,2,3,1,587919,1,649,1,9,706,1,1
shane,12,3,3,4,589564,2,603,1,0,552,1,1
shane,12,4,3,3,591110,1,1332,1,0,1432,1,1
shane,12,5,3,1,593638,1,492,1,9,629,1,1
shane,12,6,3,2,595459,2,524,1,9,672,1,1
shane,12,7,3,3,597304,1,2000,1,0,1554,1,1
shane,12,8,3,4,600578,2,734,1,0,685,1,1
shane,12,9,3,2,602210,2,2168,1,9,758,1,1
shane,12,10,3,3,605404,1,1875,1,0,1592,1,1
shane,12,11,3,1,608481,1,741,1,9,741,1,1
shane,12,12,3,4,610070,2,711,1,0,734,1,1
shane,12,13,3,1,612016,1,603,1,9,817,1,1
shane,12,14,3,4,613754,2,587,1,0,620,1,1
shane,12,15,3,3,615216,2,819,0,0,845,1,1
shane,12,16,3,2,617026,2,1351,1,9,1416,1,1
shane,12,17,3,1,619336,1,723,1,9,773,1,1
shane,12,18,3,2,621396,2,1082,1,9,1105,1,1
shane,12,19,3,3,623753,2,688,0,0,687,1,1
shane,12,20,3,4,625370,2,2041,1,0,1367,1,1
shane,12,21,3,2,628269,2,986,1,9,538,1,1
shane,12,22,3,1,630141,1,786,1,9,786,1,1
shane,12,23,3,3,631764,1,2097,1,0,2358,1,1
shane,12,24,3,4,635120,2,671,1,0,713,1,1
shane,12,25,3,3,636788,1,583,1,0,582,1,1
