subnum,trial,type,stim,tim0,resp1,rt1,corr1,resp2,rt2,corr2,tooslow
0,1,1,3,4493,2,1816,1,NA,0,0,-4494
0,2,1,4,7464,1,1962,0,NA,0,0,-7465
0,3,1,1,10584,1,2007,0,NA,0,0,-10584
0,4,1,2,13727,2,1280,1,NA,0,0,-13727
0,5,1,4,16155,2,1080,1,NA,0,0,-16156
0,6,1,3,18458,1,502,0,NA,0,0,-18459
0,7,1,1,20173,1,462,0,NA,0,0,-20174
0,8,1,2,21658,2,572,1,NA,0,0,-21658
0,9,1,3,23326,2,941,1,NA,0,0,-23326
0,10,1,1,25183,1,362,0,NA,0,0,-25183
0,11,1,4,26689,1,499,0,NA,0,0,-26689
0,12,1,2,28388,2,265,1,NA,0,0,-28388
0,13,1,4,29864,2,488,1,NA,0,0,-29864
0,14,1,2,31594,1,649,0,NA,0,0,-31594
0,15,1,1,33087,1,676,0,NA,0,0,-33087
0,16,1,3,34886,2,431,1,NA,0,0,-34886
0,17,1,4,36440,2,555,1,NA,0,0,-36441
0,18,1,3,38286,2,426,1,NA,0,0,-38287
0,19,1,2,39691,2,460,1,NA,0,0,-39692
0,20,1,1,41151,2,325,1,NA,0,0,-41152
0,21,1,2,42585,2,879,1,NA,0,0,-42586
0,22,1,1,44578,2,1721,1,NA,0,0,-44578
0,23,1,4,47406,2,406,1,NA,0,0,-47407
0,24,1,3,49017,2,115,1,NA,0,0,-49018
0,25,1,2,50284,2,349,1,NA,0,0,-50284
0,1,2,1,54166,NA,0,0,0,1130,1,-54166
0,2,2,4,56420,NA,0,0,0,449,1,-56421
0,3,2,3,57842,NA,0,0,0,540,1,-57843
0,4,2,2,59267,NA,0,0,9,402,0,-59267
0,5,2,4,60787,NA,0,0,9,292,0,-60787
0,6,2,3,62372,NA,0,0,0,57,1,-62372
0,7,2,1,63572,NA,0,0,NA,0,0,5000
0,8,2,2,69588,NA,0,0,NA,0,0,5000
0,9,2,1,75537,NA,0,0,NA,0,0,5000
0,10,2,3,81459,NA,0,0,NA,0,0,5000
0,11,2,2,87726,NA,0,0,NA,0,0,5000
0,12,2,4,93683,NA,0,0,NA,0,0,5000
0,13,2,1,99714,NA,0,0,NA,0,0,4999
0,14,2,4,105571,NA,0,0,NA,0,0,5000
0,15,2,3,111434,NA,0,0,NA,0,0,5000
0,16,2,2,117477,NA,0,0,NA,0,0,5000
0,17,2,3,123643,NA,0,0,NA,0,0,5000
0,18,2,4,129714,NA,0,0,NA,0,0,5000
0,19,2,2,135880,NA,0,0,NA,0,0,5000
0,20,2,1,141690,NA,0,0,NA,0,0,5000
0,21,2,4,147855,NA,0,0,NA,0,0,5000
0,22,2,1,154045,NA,0,0,NA,0,0,5000
0,23,2,2,159939,NA,0,0,NA,0,0,5000
0,24,2,3,166237,NA,0,0,NA,0,0,5000
0,25,2,1,172267,NA,0,0,NA,0,0,5000
0,1,3,4,638430,NA,0,0,NA,0,0,5000
0,1,1,1,4,4927,1,2131,0,NA,0,0,-4928
0,1,2,1,3,8194,NA,0,0,NA,0,0,4999
0,1,1,1,2,10634,1,3437,0,NA,0,0,-10635
0,1,2,1,4,15278,2,521,1,NA,0,0,-15278
0,1,3,1,1,16662,2,362,0,NA,0,0,-16662
0,1,4,1,3,18199,1,1327,1,NA,0,0,-18199
0,1,5,1,4,20408,2,476,1,NA,0,0,-20408
0,1,6,1,2,22139,2,1426,1,NA,0,0,-22139
0,1,7,1,3,24451,1,447,1,NA,0,0,-24451
0,1,8,1,1,26157,1,698,1,NA,0,0,-26157
0,1,9,1,3,27682,1,504,1,NA,0,0,-27682
0,1,10,1,1,29222,1,389,1,NA,0,0,-29222
0,1,11,1,2,30423,2,737,1,NA,0,0,-30424
0,1,12,1,4,32304,2,470,1,NA,0,0,-32305
0,1,13,1,1,33632,1,626,1,NA,0,0,-33632
0,1,14,1,4,35126,2,656,1,NA,0,0,-35126
0,1,15,1,3,36832,1,579,1,NA,0,0,-36832
0,1,16,1,2,38337,1,1301,0,NA,0,0,-38337
0,1,17,1,4,40709,2,536,1,NA,0,0,-40709
0,1,18,1,2,42414,1,525,0,NA,0,0,-42415
0,1,19,1,3,43987,1,562,1,NA,0,0,-43988
0,1,20,1,1,45614,1,522,1,NA,0,0,-45614
0,1,21,1,2,47115,1,420,0,NA,0,0,-47116
0,1,22,1,3,48546,2,513,0,NA,0,0,-48547
0,1,23,1,4,50227,1,323,0,NA,0,0,-50227
0,1,24,1,1,51574,1,579,1,NA,0,0,-51574
0,1,25,1,2,53249,1,618,0,NA,0,0,-53250
0,1,1,1,3,4237,1,1499,1,NA,0,0,-4238
0,1,2,1,1,6598,1,488,1,NA,0,0,-6598
0,1,3,1,4,8176,2,340,1,NA,0,0,-8177
0,1,4,1,2,9453,1,779,0,NA,0,0,-9453
0,1,5,1,3,11317,2,447,0,NA,0,0,-11318
0,1,6,1,1,12857,1,595,1,NA,0,0,-12857
0,1,7,1,4,14616,2,463,1,NA,0,0,-14617
0,1,8,1,2,15972,2,457,1,NA,0,0,-15972
0,1,9,1,1,17456,1,415,1,NA,0,0,-17456
0,1,10,1,3,19072,2,1116,0,NA,0,0,-19072
0,1,11,1,4,21445,2,409,1,NA,0,0,-21446
0,1,12,1,2,22705,2,444,1,NA,0,0,-22706
0,1,13,1,1,24062,1,493,1,NA,0,0,-24062
0,1,14,1,3,25669,1,348,1,NA,0,0,-25669
0,1,15,1,4,27284,2,387,1,NA,0,0,-27284
0,1,16,1,2,28582,2,934,1,NA,0,0,-28583
0,1,17,1,3,30454,1,446,1,NA,0,0,-30454
0,1,18,1,4,31885,2,435,1,NA,0,0,-31886
0,1,19,1,1,33547,1,494,1,NA,0,0,-33547
0,1,20,1,2,35189,2,472,1,NA,0,0,-35189
0,1,21,1,3,36543,1,484,1,NA,0,0,-36544
0,1,22,1,4,38295,2,423,1,NA,0,0,-38295
0,1,23,1,2,39979,2,833,1,NA,0,0,-39979
0,1,24,1,1,41690,1,665,1,NA,0,0,-41690
0,1,25,1,3,43306,1,675,1,NA,0,0,-43306
0,2,1,2,3,47977,NA,0,0,NA,0,0,5000
0,1,1,1,4,4821,2,675,1,NA,0,0,-4822
0,1,2,1,3,6636,2,598,0,NA,0,0,-6637
0,1,3,1,1,8402,1,537,1,NA,0,0,-8402
0,1,4,1,2,10044,2,1076,1,NA,0,0,-10044
0,1,5,1,3,12257,1,432,1,NA,0,0,-12257
0,1,6,1,1,13680,1,469,1,NA,0,0,-13681
0,1,7,1,4,15395,2,458,1,NA,0,0,-15396
0,1,8,1,2,17137,2,639,1,NA,0,0,-17137
0,1,9,1,1,18613,1,524,1,NA,0,0,-18613
0,1,10,1,2,20418,2,478,1,NA,0,0,-20419
0,1,11,1,4,21889,2,467,1,NA,0,0,-21889
0,1,12,1,3,23262,1,487,1,NA,0,0,-23262
0,1,13,1,1,24827,1,507,1,NA,0,0,-24827
0,1,14,1,2,26278,2,533,1,NA,0,0,-26279
0,1,15,1,4,28083,2,445,1,NA,0,0,-28084
0,1,16,1,3,29639,1,401,1,NA,0,0,-29639
0,1,17,1,2,31070,2,641,1,NA,0,0,-31071
0,1,18,1,4,32926,2,494,1,NA,0,0,-32926
0,1,19,1,1,34305,1,550,1,NA,0,0,-34305
0,1,20,1,3,35790,1,872,1,NA,0,0,-35790
0,1,21,1,4,37670,2,404,1,NA,0,0,-37670
0,1,22,1,1,38932,1,472,1,NA,0,0,-38932
0,1,23,1,2,40650,2,448,1,NA,0,0,-40650
0,1,24,1,3,41916,1,420,1,NA,0,0,-41916
0,1,25,1,4,43546,2,511,1,NA,0,0,-43547
0,2,1,2,4,51457,NA,0,0,0,2658,1,-51457
0,2,2,2,3,54997,NA,0,0,0,579,1,-54997
0,2,3,2,2,56843,NA,0,0,9,609,1,-56843
0,2,4,2,1,58508,NA,0,0,9,698,1,-58509
0,2,5,2,3,60396,NA,0,0,0,482,1,-60396
0,2,6,2,2,61933,NA,0,0,9,551,1,-61933
0,2,7,2,4,63725,NA,0,0,0,626,1,-63725
0,2,8,2,1,65186,NA,0,0,9,737,1,-65186
0,2,9,2,3,66800,NA,0,0,0,466,1,-66801
0,2,10,2,4,68153,NA,0,0,9,618,0,-68153
0,2,11,2,2,70073,NA,0,0,9,680,1,-70073
0,2,12,2,1,71809,NA,0,0,0,608,0,-71809
0,2,13,2,2,73244,NA,0,0,9,673,1,-73244
0,2,14,2,4,75022,NA,0,0,0,579,1,-75022
0,2,15,2,1,76518,NA,0,0,0,473,0,-76518
0,2,16,2,3,78203,NA,0,0,0,453,1,-78204
0,2,17,2,4,79540,NA,0,0,0,571,1,-79541
0,2,18,2,3,80923,NA,0,0,0,599,1,-80924
0,2,19,2,1,82587,NA,0,0,9,526,1,-82587
0,2,20,2,2,83958,NA,0,0,9,835,1,-83959
0,2,21,2,3,86095,NA,0,0,0,504,1,-86095
0,2,22,2,4,87786,NA,0,0,0,473,1,-87786
0,2,23,2,2,89204,NA,0,0,9,597,1,-89204
0,2,24,2,1,91056,NA,0,0,9,550,1,-91056
0,2,25,2,4,92721,NA,0,0,0,590,1,-92722
0,3,1,3,2,98525,1,1209,0,9,1361,1,-98525
0,3,2,3,3,101132,1,1315,1,9,1333,0,-101133
0,3,3,3,4,103701,2,1071,1,0,1071,1,-103702
0,3,4,3,1,105940,1,826,1,9,825,1,-105941
0,3,5,3,3,107816,1,683,1,9,655,0,-107816
0,3,6,3,2,109551,2,2132,1,9,2131,1,-109551
0,3,7,3,1,112759,1,2225,1,9,1429,1,-112759
0,3,8,3,4,115904,2,808,1,0,826,1,-115905
0,3,9,3,2,117652,2,975,1,9,974,1,-117652
0,3,10,3,4,119503,2,777,1,0,749,1,-119503
0,3,11,3,1,121151,1,689,1,9,712,1,-121151
0,3,12,3,3,123110,1,1126,1,0,1160,1,-123110
0,3,13,3,4,125193,2,1905,1,0,1905,1,-125193
0,3,14,3,3,128297,1,2548,1,0,2566,1,-128297
0,3,15,3,2,131687,1,749,0,9,748,1,-131687
0,3,16,3,1,133341,2,649,0,0,682,0,-133341
0,3,17,3,3,135079,1,1072,1,9,1028,0,-135080
0,3,18,3,4,137113,2,1535,1,0,1534,1,-137114
0,3,19,3,1,139613,1,683,1,9,733,1,-139614
0,3,20,3,2,141254,2,1874,1,9,3238,1,-141254
0,3,21,3,4,145343,2,1433,1,0,1906,1,-145343
0,3,22,3,3,148295,1,1727,1,0,1901,1,-148295
0,3,23,3,2,151253,1,1146,0,0,1347,0,-151253
0,3,24,3,1,153447,1,1745,1,0,1840,0,-153447
0,3,25,3,4,156313,2,728,1,0,754,1,-156314
0,4,1,1,2,158257,2,749,1,NA,0,0,-158257
0,4,2,1,4,159876,2,1390,1,NA,0,0,-159877
0,4,3,1,3,162232,1,2281,1,NA,0,0,-162232
0,4,4,1,1,165667,2,751,0,NA,0,0,-165668
0,1,1,1,4,7618,2,710,1,NA,0,0,-7618
0,1,2,1,1,9232,1,380,1,NA,0,0,-9233
0,1,3,1,2,10815,2,476,1,NA,0,0,-10815
0,1,4,1,3,12498,1,402,1,NA,0,0,-12499
0,1,5,1,4,14147,2,488,1,NA,0,0,-14147
0,1,6,1,2,15732,2,645,1,NA,0,0,-15732
0,1,7,1,1,17599,1,507,1,NA,0,0,-17599
0,1,8,1,3,19153,2,472,0,NA,0,0,-19153
0,1,9,1,1,20846,1,481,1,NA,0,0,-20846
0,1,10,1,4,22352,2,554,1,NA,0,0,-22353
0,1,11,1,2,24074,2,669,1,NA,0,0,-24075
0,1,12,1,3,25983,1,438,1,NA,0,0,-25984
0,1,13,1,2,27663,2,789,1,NA,0,0,-27664
0,1,14,1,1,29632,1,575,1,NA,0,0,-29632
0,1,15,1,3,31024,1,826,1,NA,0,0,-31025
0,1,16,1,4,32914,2,523,1,NA,0,0,-32914
0,1,17,1,3,34718,1,385,1,NA,0,0,-34719
0,1,18,1,4,36291,2,506,1,NA,0,0,-36291
0,1,19,1,1,37862,1,543,1,NA,0,0,-37862
0,1,20,1,2,39344,2,740,1,NA,0,0,-39345
0,1,21,1,4,41048,2,638,1,NA,0,0,-41049
0,1,22,1,1,42758,1,808,1,NA,0,0,-42758
0,1,23,1,2,44528,2,697,1,NA,0,0,-44529
0,1,24,1,3,46242,1,489,1,NA,0,0,-46242
0,1,25,1,2,47858,2,408,1,NA,0,0,-47859
0,2,1,2,4,54023,NA,0,0,0,467,1,-54023
0,2,2,2,3,55606,NA,0,0,9,460,0,-55607
0,2,3,2,2,57346,NA,0,0,0,271,0,-57346
0,2,4,2,1,58845,NA,0,0,9,614,1,-58845
0,2,5,2,2,60301,NA,0,0,9,394,1,-60302
0,2,6,2,1,61647,NA,0,0,9,701,1,-61647
0,2,7,2,4,63624,NA,0,0,0,384,1,-63625
0,2,8,2,3,65049,NA,0,0,0,855,1,-65049
0,2,9,2,4,66873,NA,0,0,0,425,1,-66874
0,2,10,2,3,68482,NA,0,0,9,444,0,-68483
0,2,11,2,2,69760,NA,0,0,0,393,0,-69760
0,2,12,2,1,71035,NA,0,0,9,715,1,-71035
0,2,13,2,3,72740,NA,0,0,0,669,1,-72740
0,2,14,2,1,74475,NA,0,0,9,1206,1,-74475
0,2,15,2,4,76766,NA,0,0,0,480,1,-76767
0,2,16,2,2,78456,NA,0,0,9,571,1,-78457
0,2,17,2,4,80065,NA,0,0,0,523,1,-80067
0,2,18,2,1,81796,NA,0,0,9,580,1,-81796
0,2,19,2,3,83528,NA,0,0,0,377,1,-83529
0,2,20,2,2,84781,NA,0,0,9,814,1,-84781
0,2,21,2,1,86848,NA,0,0,9,973,1,-86848
0,2,22,2,2,88844,NA,0,0,9,484,1,-88845
0,2,23,2,3,90415,NA,0,0,0,458,1,-90415
0,2,24,2,4,91688,NA,0,0,0,354,1,-91689
0,2,25,2,3,93197,NA,0,0,0,360,1,-93197
0,3,1,3,3,96970,1,1481,1,0,1498,1,-96971
0,3,2,3,4,99651,2,679,1,0,704,1,-99651
0,3,3,3,2,101166,1,756,0,9,756,1,-101166
0,3,4,3,1,103181,1,1605,1,9,1925,1,-103182
0,3,5,3,3,106237,2,742,0,0,1686,1,-106238
0,3,6,3,4,108969,2,703,1,9,802,0,-108970
0,3,7,3,2,110811,2,1802,1,9,1843,1,-110811
0,3,8,3,1,113827,1,1879,1,9,1936,1,-113827
0,3,9,3,4,116697,2,709,1,0,846,1,-116697
0,3,10,3,2,118830,2,2080,1,9,2079,1,-118831
0,3,11,3,1,121935,1,1041,1,9,1623,1,-121936
0,3,12,3,3,124853,1,445,1,9,558,0,-124854
0,3,13,3,4,126368,2,963,1,0,1051,1,-126369
0,3,14,3,2,128335,2,595,1,0,668,0,-128335
0,3,15,3,1,130304,1,881,1,9,997,1,-130304
0,3,16,3,3,132395,2,686,0,0,1451,1,-132396
0,3,17,3,1,134884,1,755,1,9,1240,1,-134884
0,3,18,3,3,137091,1,409,1,0,724,1,-137091
0,3,19,3,2,138921,2,686,1,0,798,0,-138921
0,3,20,3,4,140904,2,965,1,0,988,1,-140904
0,3,21,3,1,143098,1,814,1,0,1320,0,-143098
0,3,22,3,2,145715,2,2806,1,9,2840,1,-145715
0,3,23,3,3,149649,1,912,1,0,946,1,-149649
0,3,24,3,4,151820,2,707,1,0,741,1,-151820
0,3,25,3,2,153454,1,684,0,0,752,0,-153454
