"subnum" "stimtype" "block" "trialtype" "trial" "condition" "stim" "dim1" "dim2" "time0" "resp1" "rt1" "corr1" "resp2" "rt2" "corr2" "tooslow"
333 4 1 "PRACTICE" -25 1 3 1 0 14810 1 784 1 NA 0 0 0
333 4 1 "PRACTICE" -24 1 4 0 0 16583 2 597 1 NA 0 0 0
333 4 1 "PRACTICE" -23 1 2 0 1 18223 2 1321 1 NA 0 0 0
333 4 1 "PRACTICE" -22 1 1 1 1 20488 1 1399 1 NA 0 0 0
333 4 1 "PRACTICE" -21 1 4 0 0 23064 2 770 1 NA 0 0 0
333 4 1 "PRACTICE" -20 1 3 1 0 24802 1 421 1 NA 0 0 0
333 4 1 "PRACTICE" -19 1 1 1 1 26525 1 460 1 NA 0 0 0
333 4 1 "PRACTICE" -18 1 2 0 1 27960 2 627 1 NA 0 0 0
333 4 1 "TEST" 1 1 1 1 1 29806 1 402 1 NA 0 0 0
333 4 1 "TEST" 2 1 3 1 0 31275 1 805 1 NA 0 0 0
333 4 1 "TEST" 3 1 2 0 1 33264 2 530 1 NA 0 0 0
333 4 1 "TEST" 4 1 4 0 0 34746 2 610 1 NA 0 0 0
333 4 1 "TEST" 5 1 3 1 0 36470 1 627 1 NA 0 0 0
333 4 1 "TEST" 6 1 4 0 0 38276 2 454 1 NA 0 0 0
333 4 1 "TEST" 7 1 1 1 1 39883 1 430 1 NA 0 0 0
333 4 1 "TEST" 8 1 2 0 1 41591 1 324 0 NA 0 0 0
333 4 1 "TEST" 9 1 4 0 0 43679 2 427 1 NA 0 0 0
333 4 1 "TEST" 10 1 1 1 1 44996 1 472 1 NA 0 0 0
333 4 1 "TEST" 11 1 3 1 0 46602 1 489 1 NA 0 0 0
333 4 1 "TEST" 12 1 2 0 1 48170 1 835 0 NA 0 0 0
333 4 1 "TEST" 13 1 4 0 0 50710 2 457 1 NA 0 0 0
333 4 1 "TEST" 14 1 2 0 1 52201 2 500 1 NA 0 0 0
333 4 1 "TEST" 15 1 3 1 0 53640 1 730 1 NA 0 0 0
333 4 1 "TEST" 16 1 1 1 1 55525 1 461 1 NA 0 0 0
333 4 1 "TEST" 17 1 2 0 1 56838 2 729 1 NA 0 0 0
333 4 1 "TEST" 18 1 4 0 0 58566 2 452 1 NA 0 0 0
333 4 1 "TEST" 19 1 1 1 1 59863 1 864 1 NA 0 0 0
333 4 1 "TEST" 20 1 3 1 0 61844 1 514 1 NA 0 0 0
333 4 1 "TEST" 21 1 2 0 1 63245 2 670 1 NA 0 0 0
333 4 1 "TEST" 22 1 1 1 1 64918 1 464 1 NA 0 0 0
333 4 1 "TEST" 23 1 3 1 0 66569 1 450 1 NA 0 0 0
333 4 1 "TEST" 24 1 4 0 0 68147 1 894 0 NA 0 0 0
333 4 1 "TEST" 25 1 1 1 1 70729 NA 0 0 NA 0 0 1
333 4 2 "PRACTICE" -25 2 3 1 0 89189 NA 0 0 0 471 1 0
333 4 2 "PRACTICE" -24 2 2 0 1 90897 NA 0 0 9 406 1 0
333 4 2 "PRACTICE" -23 2 1 1 1 92425 NA 0 0 9 728 1 0
333 4 2 "PRACTICE" -22 2 4 0 0 94118 NA 0 0 0 451 1 0
333 4 2 "PRACTICE" -21 2 4 0 0 95657 NA 0 0 0 439 1 0
333 4 2 "PRACTICE" -20 2 1 1 1 97256 NA 0 0 9 435 1 0
333 4 2 "PRACTICE" -19 2 3 1 0 98842 NA 0 0 0 486 1 0
333 4 2 "PRACTICE" -18 2 2 0 1 100616 NA 0 0 9 522 1 0
333 4 2 "TEST" 1 2 1 1 1 102310 NA 0 0 9 429 1 0
333 4 2 "TEST" 2 2 3 1 0 104039 NA 0 0 0 395 1 0
333 4 2 "TEST" 3 2 4 0 0 105509 NA 0 0 0 416 1 0
333 4 2 "TEST" 4 2 2 0 1 106939 NA 0 0 9 428 1 0
333 4 2 "TEST" 5 2 3 1 0 108591 NA 0 0 0 483 1 0
333 4 2 "TEST" 6 2 4 0 0 110337 NA 0 0 0 357 1 0
333 4 2 "TEST" 7 2 2 0 1 111783 NA 0 0 9 485 1 0
333 4 2 "TEST" 8 2 1 1 1 113554 NA 0 0 9 466 1 0
333 4 2 "TEST" 9 2 3 1 0 115322 NA 0 0 0 462 1 0
333 4 2 "TEST" 10 2 4 0 0 116995 NA 0 0 0 447 1 0
333 4 2 "TEST" 11 2 1 1 1 118485 NA 0 0 9 514 1 0
333 4 2 "TEST" 12 2 2 0 1 119881 NA 0 0 9 860 1 0
333 4 2 "TEST" 13 2 3 1 0 121888 NA 0 0 0 372 1 0
333 4 2 "TEST" 14 2 1 1 1 123146 NA 0 0 9 436 1 0
333 4 2 "TEST" 15 2 4 0 0 124746 NA 0 0 0 407 1 0
333 4 2 "TEST" 16 2 2 0 1 126119 NA 0 0 9 430 1 0
333 4 2 "TEST" 17 2 4 0 0 127601 NA 0 0 0 515 1 0
333 4 2 "TEST" 18 2 3 1 0 128945 NA 0 0 0 521 1 0
333 4 2 "TEST" 19 2 1 1 1 130376 NA 0 0 9 389 1 0
333 4 2 "TEST" 20 2 2 0 1 131948 NA 0 0 9 429 1 0
333 4 2 "TEST" 21 2 1 1 1 133629 NA 0 0 9 426 1 0
333 4 2 "TEST" 22 2 3 1 0 135198 NA 0 0 0 422 1 0
333 4 2 "TEST" 23 2 4 0 0 136896 NA 0 0 0 431 1 0
333 4 2 "TEST" 24 2 2 0 1 138431 NA 0 0 9 479 1 0
333 4 2 "TEST" 25 2 1 1 1 139988 NA 0 0 9 363 1 0
333 4 3 "PRACTICE" -25 3 1 1 1 147402 1 599 1 9 617 1 0
333 4 3 "PRACTICE" -24 3 3 1 0 148930 1 673 1 0 692 1 0
333 4 3 "PRACTICE" -23 3 4 0 0 150510 2 548 1 0 574 1 0
333 4 3 "PRACTICE" -22 3 2 0 1 151977 2 634 1 9 662 1 0
333 4 3 "PRACTICE" -21 3 3 1 0 153783 1 519 1 0 539 1 0
333 4 3 "PRACTICE" -20 3 2 0 1 155443 2 486 1 9 509 1 0
333 4 3 "PRACTICE" -19 3 4 0 0 157123 2 463 1 0 485 1 0
333 4 3 "PRACTICE" -18 3 1 1 1 158770 1 428 1 9 454 1 0
333 4 3 "TEST" 1 3 3 1 0 160060 2 549 0 0 556 1 0
333 4 3 "TEST" 2 3 4 0 0 162065 2 496 1 0 506 1 0
333 4 3 "TEST" 3 3 1 1 1 163662 1 510 1 9 502 1 0
333 4 3 "TEST" 4 3 2 0 1 165463 2 553 1 9 572 1 0
333 4 3 "TEST" 5 3 3 1 0 166843 1 488 1 0 514 1 0
333 4 3 "TEST" 6 3 2 0 1 168219 2 471 1 9 494 1 0
333 4 3 "TEST" 7 3 4 0 0 169543 1 420 0 0 428 1 0
333 4 3 "TEST" 8 3 1 1 1 171499 1 504 1 9 500 1 0
333 4 3 "TEST" 9 3 3 1 0 173299 2 459 0 0 467 1 0
333 4 3 "TEST" 10 3 2 0 1 175385 2 704 1 9 721 1 0
333 4 3 "TEST" 11 3 4 0 0 177380 2 475 1 0 478 1 0
333 4 3 "TEST" 12 3 1 1 1 178697 1 505 1 9 523 1 0
333 4 3 "TEST" 13 3 2 0 1 180508 2 506 1 9 539 1 0
333 4 3 "TEST" 14 3 3 1 0 182018 1 478 1 0 488 1 0
333 4 3 "TEST" 15 3 4 0 0 183729 2 484 1 0 484 1 0
333 4 3 "TEST" 16 3 1 1 1 185144 1 484 1 9 493 1 0
333 4 3 "TEST" 17 3 4 0 0 186606 2 500 1 0 489 1 0
333 4 3 "TEST" 18 3 3 1 0 187988 1 464 1 9 490 0 0
333 4 3 "TEST" 19 3 2 0 1 189846 2 492 1 9 504 1 0
333 4 3 "TEST" 20 3 1 1 1 191280 2 509 0 9 509 1 0
333 4 3 "TEST" 21 3 4 0 0 193392 2 490 1 0 496 1 0
333 4 3 "TEST" 22 3 3 1 0 194842 1 474 1 0 471 1 0
333 4 3 "TEST" 23 3 2 0 1 196521 2 525 1 9 555 1 0
333 4 3 "TEST" 24 3 1 1 1 197946 1 520 1 9 505 1 0
333 4 3 "TEST" 25 3 2 0 1 199528 2 439 1 9 456 1 0
333 4 4 "PRACTICE" -25 1 2 0 1 252142 2 1108 1 NA 0 0 0
333 4 4 "PRACTICE" -24 1 4 0 0 254411 2 452 1 NA 0 0 0
333 4 4 "PRACTICE" -23 1 1 1 1 255713 1 436 1 NA 0 0 0
333 4 4 "PRACTICE" -22 1 3 1 0 257010 1 423 1 NA 0 0 0
333 4 4 "PRACTICE" -21 1 3 1 0 258419 1 452 1 NA 0 0 0
333 4 4 "PRACTICE" -20 1 2 0 1 259894 2 443 1 NA 0 0 0
333 4 4 "PRACTICE" -19 1 1 1 1 261503 1 420 1 NA 0 0 0
333 4 4 "PRACTICE" -18 1 4 0 0 262761 2 514 1 NA 0 0 0
333 4 4 "TEST" 1 1 3 1 0 264196 1 403 1 NA 0 0 0
333 4 4 "TEST" 2 1 2 0 1 265563 1 435 0 NA 0 0 0
333 4 4 "TEST" 3 1 4 0 0 267503 2 470 1 NA 0 0 0
333 4 4 "TEST" 4 1 1 1 1 269263 1 412 1 NA 0 0 0
333 4 4 "TEST" 5 1 4 0 0 270975 2 459 1 NA 0 0 0
333 4 4 "TEST" 6 1 3 1 0 272592 1 418 1 NA 0 0 0
333 4 4 "TEST" 7 1 2 0 1 273835 2 542 1 NA 0 0 0
333 4 4 "TEST" 8 1 1 1 1 275434 1 349 1 NA 0 0 0
333 4 4 "TEST" 9 1 3 1 0 276721 1 485 1 NA 0 0 0
333 4 4 "TEST" 10 1 1 1 1 278232 1 433 1 NA 0 0 0
333 4 4 "TEST" 11 1 4 0 0 279556 2 522 1 NA 0 0 0
333 4 4 "TEST" 12 1 2 0 1 281361 2 462 1 NA 0 0 0
333 4 4 "TEST" 13 1 4 0 0 282678 2 499 1 NA 0 0 0
333 4 4 "TEST" 14 1 3 1 0 284205 1 461 1 NA 0 0 0
333 4 4 "TEST" 15 1 1 1 1 285944 1 417 1 NA 0 0 0
333 4 4 "TEST" 16 1 2 0 1 287445 2 486 1 NA 0 0 0
333 4 4 "TEST" 17 1 4 0 0 289161 2 486 1 NA 0 0 0
333 4 4 "TEST" 18 1 3 1 0 290680 1 545 1 NA 0 0 0
333 4 4 "TEST" 19 1 2 0 1 292527 2 489 1 NA 0 0 0
333 4 4 "TEST" 20 1 1 1 1 294103 1 391 1 NA 0 0 0
333 4 4 "TEST" 21 1 3 1 0 295380 1 425 1 NA 0 0 0
333 4 4 "TEST" 22 1 1 1 1 296630 1 498 1 NA 0 0 0
333 4 4 "TEST" 23 1 2 0 1 298095 2 500 1 NA 0 0 0
333 4 4 "TEST" 24 1 4 0 0 299795 2 436 1 NA 0 0 0
333 4 4 "TEST" 25 1 3 1 0 301413 1 471 1 NA 0 0 0
333 4 5 "PRACTICE" -25 2 3 1 0 306546 NA 0 0 9 446 0 0
333 4 5 "PRACTICE" -24 2 4 0 0 308405 NA 0 0 0 529 1 0
333 4 5 "PRACTICE" -23 2 1 1 1 309942 NA 0 0 0 491 0 0
333 4 5 "PRACTICE" -22 2 2 0 1 312214 NA 0 0 0 860 0 0
333 4 5 "PRACTICE" -21 2 3 1 0 314525 NA 0 0 0 535 1 0
333 4 5 "PRACTICE" -20 2 2 0 1 316044 NA 0 0 9 493 1 0
333 4 5 "PRACTICE" -19 2 4 0 0 317474 NA 0 0 0 494 1 0
333 4 5 "PRACTICE" -18 2 1 1 1 318981 NA 0 0 9 411 1 0
333 4 5 "TEST" 1 2 3 1 0 320607 NA 0 0 0 428 1 0
333 4 5 "TEST" 2 2 1 1 1 322262 NA 0 0 9 430 1 0
333 4 5 "TEST" 3 2 4 0 0 323987 NA 0 0 0 404 1 0
333 4 5 "TEST" 4 2 2 0 1 325425 NA 0 0 9 454 1 0
333 4 5 "TEST" 5 2 3 1 0 326877 NA 0 0 0 459 1 0
333 4 5 "TEST" 6 2 2 0 1 328469 NA 0 0 9 467 1 0
333 4 5 "TEST" 7 2 1 1 1 330011 NA 0 0 9 428 1 0
333 4 5 "TEST" 8 2 4 0 0 331682 NA 0 0 0 415 1 0
333 4 5 "TEST" 9 2 2 0 1 333346 NA 0 0 9 429 1 0
333 4 5 "TEST" 10 2 4 0 0 334820 NA 0 0 0 398 1 0
333 4 5 "TEST" 11 2 1 1 1 336437 NA 0 0 9 397 1 0
333 4 5 "TEST" 12 2 3 1 0 337700 NA 0 0 0 538 1 0
333 4 5 "TEST" 13 2 1 1 1 339537 NA 0 0 9 392 1 0
333 4 5 "TEST" 14 2 2 0 1 341207 NA 0 0 9 525 1 0
333 4 5 "TEST" 15 2 4 0 0 342736 NA 0 0 0 515 1 0
333 4 5 "TEST" 16 2 3 1 0 344467 NA 0 0 0 429 1 0
333 4 5 "TEST" 17 2 4 0 0 346130 NA 0 0 0 418 1 0
333 4 5 "TEST" 18 2 2 0 1 347570 NA 0 0 9 510 1 0
333 4 5 "TEST" 19 2 1 1 1 348925 NA 0 0 9 533 1 0
333 4 5 "TEST" 20 2 3 1 0 350602 NA 0 0 0 442 1 0
333 4 5 "TEST" 21 2 2 0 1 352147 NA 0 0 9 413 1 0
333 4 5 "TEST" 22 2 1 1 1 353466 NA 0 0 9 495 1 0
333 4 5 "TEST" 23 2 3 1 0 354833 NA 0 0 0 502 1 0
333 4 5 "TEST" 24 2 4 0 0 356618 NA 0 0 0 472 1 0
333 4 5 "TEST" 25 2 3 1 0 358109 NA 0 0 0 470 1 0
333 4 6 "PRACTICE" -25 3 2 0 1 366376 2 550 1 9 556 1 0
333 4 6 "PRACTICE" -24 3 4 0 0 367740 2 553 1 0 550 1 0
333 4 6 "PRACTICE" -23 3 3 1 0 369291 1 523 1 0 529 1 0
333 4 6 "PRACTICE" -22 3 1 1 1 371029 1 468 1 9 469 1 0
333 4 6 "PRACTICE" -21 3 1 1 1 372408 1 504 1 9 483 1 0
333 4 6 "PRACTICE" -20 3 3 1 0 374127 1 514 1 0 510 1 0
333 4 6 "PRACTICE" -19 3 4 0 0 375749 2 412 1 0 408 1 0
333 4 6 "PRACTICE" -18 3 2 0 1 377449 2 573 1 9 586 1 0
333 4 6 "TEST" 1 3 1 1 1 378909 1 473 1 9 479 1 0
333 4 6 "TEST" 2 3 3 1 0 380342 2 465 0 0 417 1 0
333 4 6 "TEST" 3 3 4 0 0 382215 2 524 1 0 527 1 0
333 4 6 "TEST" 4 3 2 0 1 383693 2 545 1 9 562 1 0
333 4 6 "TEST" 5 3 4 0 0 385121 2 505 1 0 508 1 0
333 4 6 "TEST" 6 3 2 0 1 386654 2 560 1 9 571 1 0
333 4 6 "TEST" 7 3 1 1 1 388230 1 511 1 9 503 1 0
333 4 6 "TEST" 8 3 3 1 0 389721 1 451 1 0 458 1 0
333 4 6 "TEST" 9 3 1 1 1 391235 1 499 1 9 500 1 0
333 4 6 "TEST" 10 3 2 0 1 392724 2 511 1 9 525 1 0
333 4 6 "TEST" 11 3 3 1 0 394064 1 506 1 0 506 1 0
333 4 6 "TEST" 12 3 4 0 0 395702 2 566 1 0 461 1 0
333 4 6 "TEST" 13 3 2 0 1 397087 2 853 1 9 878 1 0
333 4 6 "TEST" 14 3 3 1 0 398917 1 484 1 0 490 1 0
333 4 6 "TEST" 15 3 1 1 1 400219 1 535 1 9 537 1 0
333 4 6 "TEST" 16 3 4 0 0 401972 2 475 1 0 486 1 0
333 4 6 "TEST" 17 3 1 1 1 403526 1 461 1 9 474 1 0
333 4 6 "TEST" 18 3 3 1 0 405209 1 397 1 0 410 1 0
333 4 6 "TEST" 19 3 2 0 1 406509 2 440 1 9 440 1 0
333 4 6 "TEST" 20 3 4 0 0 408094 1 498 0 0 505 1 0
333 4 6 "TEST" 21 3 2 0 1 410070 2 519 1 9 536 1 0
333 4 6 "TEST" 22 3 1 1 1 411628 1 474 1 9 541 1 0
333 4 6 "TEST" 23 3 4 0 0 412987 2 530 1 0 521 1 0
333 4 6 "TEST" 24 3 3 1 0 414324 1 572 1 0 598 1 0
333 4 6 "TEST" 25 3 1 1 1 415948 1 433 1 9 428 1 0
333 4 7 "PRACTICE" -25 1 4 0 0 453850 2 446 1 NA 0 0 0
333 4 7 "PRACTICE" -24 1 3 1 0 455499 1 449 1 NA 0 0 0
333 4 7 "PRACTICE" -23 1 2 0 1 457045 2 480 1 NA 0 0 0
333 4 7 "PRACTICE" -22 1 1 1 1 458574 1 406 1 NA 0 0 0
333 4 7 "PRACTICE" -21 1 2 0 1 460022 2 378 1 NA 0 0 0
333 4 7 "PRACTICE" -20 1 3 1 0 461424 1 445 1 NA 0 0 0
333 4 7 "PRACTICE" -19 1 1 1 1 463058 1 431 1 NA 0 0 0
333 4 7 "PRACTICE" -18 1 4 0 0 464570 2 438 1 NA 0 0 0
333 4 7 "TEST" 1 1 4 0 0 466134 2 423 1 NA 0 0 0
333 4 7 "TEST" 2 1 1 1 1 467639 1 411 1 NA 0 0 0
333 4 7 "TEST" 3 1 3 1 0 468857 1 569 1 NA 0 0 0
333 4 7 "TEST" 4 1 2 0 1 470668 2 429 1 NA 0 0 0
333 4 7 "TEST" 5 1 3 1 0 471900 1 517 1 NA 0 0 0
333 4 7 "TEST" 6 1 1 1 1 473466 1 406 1 NA 0 0 0
333 4 7 "TEST" 7 1 2 0 1 474875 2 529 1 NA 0 0 0
333 4 7 "TEST" 8 1 4 0 0 476438 2 393 1 NA 0 0 0
333 4 7 "TEST" 9 1 2 0 1 478032 2 405 1 NA 0 0 0
333 4 7 "TEST" 10 1 1 1 1 479467 1 434 1 NA 0 0 0
333 4 7 "TEST" 11 1 3 1 0 481071 1 383 1 NA 0 0 0
333 4 7 "TEST" 12 1 4 0 0 482396 2 571 1 NA 0 0 0
333 4 7 "TEST" 13 1 1 1 1 483866 1 408 1 NA 0 0 0
333 4 7 "TEST" 14 1 2 0 1 485247 2 483 1 NA 0 0 0
333 4 7 "TEST" 15 1 4 0 0 486631 2 406 1 NA 0 0 0
333 4 7 "TEST" 16 1 3 1 0 488318 1 499 1 NA 0 0 0
333 4 7 "TEST" 17 1 1 1 1 490096 1 421 1 NA 0 0 0
333 4 7 "TEST" 18 1 2 0 1 491600 2 531 1 NA 0 0 0
333 4 7 "TEST" 19 1 3 1 0 493002 1 603 1 NA 0 0 0
333 4 7 "TEST" 20 1 4 0 0 494599 2 430 1 NA 0 0 0
333 4 7 "TEST" 21 1 3 1 0 496124 1 352 1 NA 0 0 0
333 4 7 "TEST" 22 1 4 0 0 497557 2 483 1 NA 0 0 0
333 4 7 "TEST" 23 1 2 0 1 498964 2 452 1 NA 0 0 0
333 4 7 "TEST" 24 1 1 1 1 500338 1 457 1 NA 0 0 0
333 4 7 "TEST" 25 1 3 1 0 501776 1 482 1 NA 0 0 0
333 4 8 "PRACTICE" -25 2 1 1 1 507275 NA 0 0 9 469 1 0
333 4 8 "PRACTICE" -24 2 2 0 1 508634 NA 0 0 9 385 1 0
333 4 8 "PRACTICE" -23 2 3 1 0 510234 NA 0 0 0 381 1 0
333 4 8 "PRACTICE" -22 2 4 0 0 511646 NA 0 0 0 414 1 0
333 4 8 "PRACTICE" -21 2 3 1 0 513346 NA 0 0 0 340 1 0
333 4 8 "PRACTICE" -20 2 1 1 1 514930 NA 0 0 9 416 1 0
333 4 8 "PRACTICE" -19 2 2 0 1 516319 NA 0 0 9 362 1 0
333 4 8 "PRACTICE" -18 2 4 0 0 517562 NA 0 0 0 505 1 0
333 4 8 "TEST" 1 2 4 0 0 519073 NA 0 0 0 384 1 0
333 4 8 "TEST" 2 2 2 0 1 520272 NA 0 0 9 493 1 0
333 4 8 "TEST" 3 2 1 1 1 521971 NA 0 0 9 394 1 0
333 4 8 "TEST" 4 2 3 1 0 523495 NA 0 0 0 421 1 0
333 4 8 "TEST" 5 2 4 0 0 525212 NA 0 0 0 353 1 0
333 4 8 "TEST" 6 2 2 0 1 526691 NA 0 0 9 406 1 0
333 4 8 "TEST" 7 2 1 1 1 528023 NA 0 0 9 398 1 0
333 4 8 "TEST" 8 2 3 1 0 529295 NA 0 0 9 371 0 0
333 4 8 "TEST" 9 2 1 1 1 531188 NA 0 0 9 501 1 0
333 4 8 "TEST" 10 2 2 0 1 532887 NA 0 0 9 412 1 0
333 4 8 "TEST" 11 2 4 0 0 534529 NA 0 0 0 353 1 0
333 4 8 "TEST" 12 2 3 1 0 535867 NA 0 0 0 400 1 0
333 4 8 "TEST" 13 2 1 1 1 537427 NA 0 0 9 391 1 0
333 4 8 "TEST" 14 2 2 0 1 538698 NA 0 0 9 422 1 0
333 4 8 "TEST" 15 2 4 0 0 540346 NA 0 0 0 376 1 0
333 4 8 "TEST" 16 2 3 1 0 541963 NA 0 0 0 426 1 0
333 4 8 "TEST" 17 2 1 1 1 543537 NA 0 0 9 450 1 0
333 4 8 "TEST" 18 2 4 0 0 545134 NA 0 0 0 397 1 0
333 4 8 "TEST" 19 2 3 1 0 546770 NA 0 0 0 400 1 0
333 4 8 "TEST" 20 2 2 0 1 548450 NA 0 0 9 372 1 0
333 4 8 "TEST" 21 2 1 1 1 549803 NA 0 0 9 397 1 0
333 4 8 "TEST" 22 2 3 1 0 551069 NA 0 0 0 432 1 0
333 4 8 "TEST" 23 2 4 0 0 552665 NA 0 0 0 374 1 0
333 4 8 "TEST" 24 2 2 0 1 554050 NA 0 0 9 421 1 0
333 4 8 "TEST" 25 2 3 1 0 555428 NA 0 0 0 384 1 0
333 4 9 "PRACTICE" -25 3 2 0 1 564399 2 522 1 9 531 1 0
333 4 9 "PRACTICE" -24 3 4 0 0 566017 2 554 1 0 513 1 0
333 4 9 "PRACTICE" -23 3 3 1 0 567541 1 635 1 0 626 1 0
333 4 9 "PRACTICE" -22 3 1 1 1 569186 2 437 0 9 437 1 0
333 4 9 "PRACTICE" -21 3 4 0 0 570957 2 426 1 0 433 1 0
333 4 9 "PRACTICE" -20 3 2 0 1 572472 1 434 0 9 616 1 0
333 4 9 "PRACTICE" -19 3 3 1 0 574546 1 479 1 0 490 1 0
333 4 9 "PRACTICE" -18 3 1 1 1 576239 1 478 1 9 481 1 0
333 4 9 "TEST" 1 3 3 1 0 577985 1 598 1 0 642 1 0
333 4 9 "TEST" 2 3 4 0 0 579750 2 465 1 0 473 1 0
333 4 9 "TEST" 3 3 1 1 1 581192 1 470 1 9 482 1 0
333 4 9 "TEST" 4 3 2 0 1 582550 2 519 1 9 532 1 0
333 4 9 "TEST" 5 3 1 1 1 584058 1 494 1 9 494 1 0
333 4 9 "TEST" 6 3 4 0 0 585646 2 432 1 0 460 1 0
333 4 9 "TEST" 7 3 2 0 1 587171 2 573 1 9 604 1 0
333 4 9 "TEST" 8 3 3 1 0 589023 1 446 1 0 472 1 0
333 4 9 "TEST" 9 3 1 1 1 590652 2 437 0 9 442 1 0
333 4 9 "TEST" 10 3 2 0 1 592695 2 499 1 9 519 1 0
333 4 9 "TEST" 11 3 4 0 0 594083 2 477 1 0 465 1 0
333 4 9 "TEST" 12 3 3 1 0 595719 1 512 1 0 529 1 0
333 4 9 "TEST" 13 3 2 0 1 597364 2 481 1 9 490 1 0
333 4 9 "TEST" 14 3 4 0 0 599021 2 483 1 0 489 1 0
333 4 9 "TEST" 15 3 1 1 1 600738 1 401 1 9 415 1 0
333 4 9 "TEST" 16 3 3 1 0 602143 1 511 1 0 513 1 0
333 4 9 "TEST" 17 3 1 1 1 603831 1 488 1 9 489 1 0
333 4 9 "TEST" 18 3 3 1 0 605275 1 440 1 0 459 1 0
333 4 9 "TEST" 19 3 4 0 0 606873 2 450 1 0 438 1 0
333 4 9 "TEST" 20 3 2 0 1 608440 1 406 0 9 429 1 0
333 4 9 "TEST" 21 3 3 1 0 610188 1 475 1 0 483 1 0
333 4 9 "TEST" 22 3 2 0 1 611676 2 490 1 9 499 1 0
333 4 9 "TEST" 23 3 4 0 0 613340 2 473 1 0 492 1 0
333 4 9 "TEST" 24 3 1 1 1 614735 1 465 1 9 460 1 0
333 4 9 "TEST" 25 3 2 0 1 616488 2 483 1 9 500 1 0
333 4 10 "PRACTICE" -25 1 2 0 1 678447 2 577 1 NA 0 0 0
333 4 10 "PRACTICE" -24 1 1 1 1 680312 1 392 1 NA 0 0 0
333 4 10 "PRACTICE" -23 1 4 0 0 681840 2 408 1 NA 0 0 0
333 4 10 "PRACTICE" -22 1 3 1 0 683491 1 372 1 NA 0 0 0
333 4 10 "PRACTICE" -21 1 4 0 0 684993 2 498 1 NA 0 0 0
333 4 10 "PRACTICE" -20 1 1 1 1 686582 1 391 1 NA 0 0 0
333 4 10 "PRACTICE" -19 1 3 1 0 688090 1 441 1 NA 0 0 0
333 4 10 "PRACTICE" -18 1 2 0 1 689766 2 449 1 NA 0 0 0
333 4 10 "TEST" 1 1 3 1 0 691206 1 377 1 NA 0 0 0
333 4 10 "TEST" 2 1 1 1 1 692431 1 490 1 NA 0 0 0
333 4 10 "TEST" 3 1 2 0 1 694060 2 438 1 NA 0 0 0
333 4 10 "TEST" 4 1 4 0 0 695455 2 401 1 NA 0 0 0
333 4 10 "TEST" 5 1 3 1 0 696786 1 416 1 NA 0 0 0
333 4 10 "TEST" 6 1 4 0 0 698058 2 496 1 NA 0 0 0
333 4 10 "TEST" 7 1 2 0 1 699842 2 488 1 NA 0 0 0
333 4 10 "TEST" 8 1 1 1 1 701271 1 382 1 NA 0 0 0
333 4 10 "TEST" 9 1 2 0 1 702911 2 331 1 NA 0 0 0
333 4 10 "TEST" 10 1 4 0 0 704229 1 403 0 NA 0 0 0
333 4 10 "TEST" 11 1 3 1 0 706235 1 436 1 NA 0 0 0
333 4 10 "TEST" 12 1 1 1 1 707669 1 412 1 NA 0 0 0
333 4 10 "TEST" 13 1 3 1 0 709083 1 523 1 NA 0 0 0
333 4 10 "TEST" 14 1 2 0 1 710887 2 463 1 NA 0 0 0
333 4 10 "TEST" 15 1 4 0 0 712290 2 507 1 NA 0 0 0
333 4 10 "TEST" 16 1 1 1 1 713676 1 619 1 NA 0 0 0
333 4 10 "TEST" 17 1 2 0 1 715356 2 422 1 NA 0 0 0
333 4 10 "TEST" 18 1 3 1 0 716645 1 501 1 NA 0 0 0
333 4 10 "TEST" 19 1 4 0 0 718432 2 402 1 NA 0 0 0
333 4 10 "TEST" 20 1 1 1 1 719982 1 480 1 NA 0 0 0
333 4 10 "TEST" 21 1 4 0 0 721271 2 452 1 NA 0 0 0
333 4 10 "TEST" 22 1 3 1 0 722724 1 410 1 NA 0 0 0
333 4 10 "TEST" 23 1 2 0 1 724331 2 424 1 NA 0 0 0
333 4 10 "TEST" 24 1 1 1 1 725921 1 370 1 NA 0 0 0
333 4 10 "TEST" 25 1 2 0 1 727277 2 471 1 NA 0 0 0
333 4 11 "PRACTICE" -25 2 2 0 1 732031 NA 0 0 0 719 0 0
333 4 11 "PRACTICE" -24 2 3 1 0 734206 NA 0 0 0 442 1 0
333 4 11 "PRACTICE" -23 2 1 1 1 735592 NA 0 0 9 432 1 0
333 4 11 "PRACTICE" -22 2 4 0 0 737232 NA 0 0 0 390 1 0
333 4 11 "PRACTICE" -21 2 2 0 1 738439 NA 0 0 9 583 1 0
333 4 11 "PRACTICE" -20 2 1 1 1 740256 NA 0 0 9 450 1 0
333 4 11 "PRACTICE" -19 2 3 1 0 741747 NA 0 0 0 395 1 0
333 4 11 "PRACTICE" -18 2 4 0 0 743316 NA 0 0 0 386 1 0
333 4 11 "TEST" 1 2 3 1 0 744867 NA 0 0 0 394 1 0
333 4 11 "TEST" 2 2 4 0 0 746091 NA 0 0 0 477 1 0
333 4 11 "TEST" 3 2 1 1 1 747758 NA 0 0 9 427 1 0
333 4 11 "TEST" 4 2 2 0 1 749079 NA 0 0 9 474 1 0
333 4 11 "TEST" 5 2 1 1 1 750367 NA 0 0 9 431 1 0
333 4 11 "TEST" 6 2 4 0 0 751715 NA 0 0 0 535 1 0
333 4 11 "TEST" 7 2 3 1 0 753354 NA 0 0 0 460 1 0
333 4 11 "TEST" 8 2 2 0 1 754749 NA 0 0 9 521 1 0
333 4 11 "TEST" 9 2 1 1 1 756492 NA 0 0 9 388 1 0
333 4 11 "TEST" 10 2 3 1 0 757950 NA 0 0 0 445 1 0
333 4 11 "TEST" 11 2 4 0 0 759517 NA 0 0 0 539 1 0
333 4 11 "TEST" 12 2 2 0 1 761066 NA 0 0 9 473 1 0
333 4 11 "TEST" 13 2 4 0 0 762419 NA 0 0 0 546 1 0
333 4 11 "TEST" 14 2 3 1 0 763779 NA 0 0 0 402 1 0
333 4 11 "TEST" 15 2 1 1 1 765177 NA 0 0 9 579 1 0
333 4 11 "TEST" 16 2 2 0 1 766843 NA 0 0 9 778 1 0
333 4 11 "TEST" 17 2 4 0 0 768489 NA 0 0 0 568 1 0
333 4 11 "TEST" 18 2 3 1 0 770222 NA 0 0 0 429 1 0
333 4 11 "TEST" 19 2 1 1 1 771670 NA 0 0 9 377 1 0
333 4 11 "TEST" 20 2 2 0 1 773276 NA 0 0 9 456 1 0
333 4 11 "TEST" 21 2 1 1 1 774578 NA 0 0 9 548 1 0
333 4 11 "TEST" 22 2 4 0 0 776094 NA 0 0 0 592 1 0
333 4 11 "TEST" 23 2 2 0 1 777896 NA 0 0 9 453 1 0
333 4 11 "TEST" 24 2 3 1 0 779320 NA 0 0 0 506 1 0
333 4 11 "TEST" 25 2 1 1 1 780949 NA 0 0 9 421 1 0
333 4 12 "PRACTICE" -25 3 3 1 0 785852 1 545 1 0 558 1 0
333 4 12 "PRACTICE" -24 3 2 0 1 787307 2 438 1 9 451 1 0
333 4 12 "PRACTICE" -23 3 1 1 1 788882 1 464 1 9 474 1 0
333 4 12 "PRACTICE" -22 3 4 0 0 790344 2 434 1 0 444 1 0
333 4 12 "PRACTICE" -21 3 1 1 1 791621 1 521 1 9 548 1 0
333 4 12 "PRACTICE" -20 3 3 1 0 793146 2 466 0 0 471 1 0
333 4 12 "PRACTICE" -19 3 2 0 1 795302 2 456 1 9 468 1 0
333 4 12 "PRACTICE" -18 3 4 0 0 796841 2 538 1 0 550 1 0
333 4 12 "TEST" 1 3 1 1 1 798353 1 417 1 9 428 1 0
333 4 12 "TEST" 2 3 2 0 1 799585 2 671 1 9 699 1 0
333 4 12 "TEST" 3 3 3 1 0 801360 1 596 1 0 642 1 0
333 4 12 "TEST" 4 3 4 0 0 803269 2 523 1 0 506 1 0
333 4 12 "TEST" 5 3 2 0 1 804922 1 475 0 9 485 1 0
333 4 12 "TEST" 6 3 1 1 1 807067 1 510 1 9 520 1 0
333 4 12 "TEST" 7 3 4 0 0 808669 2 531 1 0 534 1 0
333 4 12 "TEST" 8 3 3 1 0 810352 1 470 1 0 482 1 0
333 4 12 "TEST" 9 3 1 1 1 811861 1 548 1 9 527 1 0
333 4 12 "TEST" 10 3 4 0 0 813373 2 461 1 0 466 1 0
333 4 12 "TEST" 11 3 3 1 0 814869 1 601 1 0 614 1 0
333 4 12 "TEST" 12 3 2 0 1 816593 2 581 1 9 592 1 0
333 4 12 "TEST" 13 3 4 0 0 818458 2 567 1 0 581 1 0
333 4 12 "TEST" 14 3 3 1 0 819994 1 475 1 0 486 1 0
333 4 12 "TEST" 15 3 1 1 1 821341 1 557 1 9 656 1 0
333 4 12 "TEST" 16 3 2 0 1 822985 2 519 1 9 531 1 0
333 4 12 "TEST" 17 3 3 1 0 824568 1 480 1 0 482 1 0
333 4 12 "TEST" 18 3 1 1 1 825982 1 535 1 9 521 1 0
333 4 12 "TEST" 19 3 4 0 0 827771 2 532 1 0 530 1 0
333 4 12 "TEST" 20 3 2 0 1 829518 2 534 1 9 538 1 0
333 4 12 "TEST" 21 3 1 1 1 830894 1 584 1 9 586 1 0
333 4 12 "TEST" 22 3 2 0 1 832481 2 572 1 9 594 1 0
333 4 12 "TEST" 23 3 4 0 0 834270 2 492 1 0 490 1 0
333 4 12 "TEST" 24 3 3 1 0 835702 1 605 1 0 599 1 0
333 4 12 "TEST" 25 3 1 1 1 837401 1 527 1 9 542 1 0
