subnum,type,time,trial,ltrs,target,size,frame,resp,corr,rt
321,1,20626,1,NJ,J,2,1,<rshift>,1,1100
321,1,21682,2,NJ,D,2,2,<lshift>,1,853
321,1,22489,3,NJ,N,2,1,<rshift>,1,605
321,1,23170,4,NJ,N,2,1,<rshift>,1,475
321,1,23833,5,NJ,J,2,1,<lshift>,0,459
321,1,25195,6,NJ,C,2,2,<lshift>,1,1160
321,1,26114,7,NJ,P,2,2,<lshift>,1,718
321,1,26861,8,NJ,J,2,1,<rshift>,1,545
321,1,27613,9,NJ,O,2,2,<lshift>,1,550
321,1,28541,10,NJ,P,2,2,<lshift>,1,725
321,1,29296,11,NJ,N,2,1,<rshift>,1,551
321,1,30092,12,NJ,O,2,2,<lshift>,1,593
321,1,30826,13,NJ,N,2,1,<rshift>,1,534
321,1,31863,14,NJ,D,2,2,<lshift>,1,834
321,1,32619,15,NJ,J,2,1,<rshift>,1,552
321,1,33267,16,NJ,J,2,1,<rshift>,1,446
321,1,33870,17,NJ,N,2,1,<rshift>,1,400
321,1,34556,18,NJ,C,2,2,<lshift>,1,482
321,1,35281,19,NJ,U,2,2,<lshift>,1,524
321,1,36084,20,NJ,P,2,2,<lshift>,1,599
321,1,36856,21,NJ,N,2,1,<rshift>,1,568
321,1,37525,22,NJ,N,2,1,<rshift>,1,467
321,1,38386,23,NJ,P,2,2,<lshift>,1,659
321,1,39139,24,NJ,N,2,1,<rshift>,1,551
321,1,39940,25,NJ,C,2,2,<lshift>,1,598
321,1,42802,26,TNJ,J,3,1,<rshift>,1,715
321,1,43603,27,TNJ,T,3,1,<rshift>,1,598
321,1,44400,28,TNJ,J,3,1,<rshift>,1,593
321,1,45060,29,TNJ,T,3,1,<rshift>,1,459
321,1,45787,30,TNJ,P,3,2,<lshift>,1,523
321,1,46665,31,TNJ,C,3,2,<lshift>,1,674
321,1,47340,32,TNJ,C,3,2,<lshift>,1,472
321,1,48087,33,TNJ,N,3,1,<rshift>,1,545
321,1,48797,34,TNJ,D,3,2,<lshift>,1,508
321,1,49430,35,TNJ,C,3,2,<lshift>,1,430
321,1,50141,36,TNJ,T,3,1,<rshift>,1,508
321,1,50846,37,TNJ,D,3,2,<lshift>,1,502
321,1,51460,38,TNJ,O,3,2,<lshift>,1,410
321,1,52043,39,TNJ,U,3,2,<lshift>,1,380
321,1,52776,40,TNJ,J,3,1,<rshift>,1,529
321,1,53593,41,TNJ,O,3,2,<lshift>,1,614
321,1,54240,42,TNJ,O,3,2,<lshift>,1,444
321,1,54962,43,TNJ,J,3,1,<rshift>,1,518
321,1,55802,44,TNJ,U,3,2,<lshift>,1,638
321,1,56565,45,TNJ,N,3,1,<rshift>,1,560
321,1,57504,46,TNJ,D,3,2,<lshift>,1,738
321,1,58279,47,TNJ,J,3,1,<rshift>,1,573
321,1,59110,48,TNJ,J,3,1,<rshift>,1,628
321,1,59804,49,TNJ,T,3,1,<rshift>,1,494
321,1,60501,50,TNJ,T,3,1,<rshift>,1,495
321,1,63920,51,KNJF,J,4,1,<rshift>,1,1159
321,1,64747,52,KNJF,K,4,1,<rshift>,1,625
321,1,65514,53,KNJF,J,4,1,<rshift>,1,564
321,1,66631,54,KNJF,D,4,2,<lshift>,1,916
321,1,67375,55,KNJF,J,4,1,<rshift>,1,541
321,1,68115,56,KNJF,J,4,1,<rshift>,1,536
321,1,69300,57,KNJF,C,4,2,<lshift>,1,981
321,1,70005,58,KNJF,O,4,2,<lshift>,1,503
321,1,70712,59,KNJF,C,4,2,<lshift>,1,505
321,1,71466,60,KNJF,O,4,2,<lshift>,1,551
321,1,72265,61,KNJF,P,4,2,<lshift>,1,595
321,1,73110,62,KNJF,J,4,1,<rshift>,1,642
321,1,74143,63,KNJF,F,4,1,<rshift>,1,832
321,1,74904,64,KNJF,N,4,1,<rshift>,1,559
321,1,75662,65,KNJF,J,4,1,<rshift>,1,554
321,1,76343,66,KNJF,K,4,1,<rshift>,1,477
321,1,77051,67,KNJF,N,4,1,<rshift>,1,504
321,1,77740,68,KNJF,K,4,1,<rshift>,1,487
321,1,78699,69,KNJF,P,4,2,<lshift>,1,756
321,1,79513,70,KNJF,C,4,2,<lshift>,1,612
321,1,80320,71,KNJF,N,4,1,<rshift>,1,607
321,1,81169,72,KNJF,C,4,2,<lshift>,1,646
321,1,82066,73,KNJF,P,4,2,<lshift>,1,694
321,1,82829,74,KNJF,C,4,2,<lshift>,1,560
321,1,83489,75,KNJF,C,4,2,<lshift>,1,456
321,1,86298,76,FTN,T,3,1,<rshift>,1,787
321,1,87041,77,FTN,T,3,1,<rshift>,1,539
321,1,87769,78,FTN,C,3,2,<lshift>,1,527
321,1,88610,79,FTN,P,3,2,<lshift>,1,639
321,1,89757,80,FTN,T,3,1,<rshift>,1,942
321,1,90607,81,FTN,D,3,2,<lshift>,1,647
321,1,91340,82,FTN,D,3,2,<lshift>,1,530
321,1,92077,83,FTN,P,3,2,<lshift>,1,535
321,1,92860,84,FTN,T,3,1,<rshift>,1,582
321,1,93605,85,FTN,U,3,2,<lshift>,1,541
321,1,94264,86,FTN,T,3,1,<rshift>,1,455
321,1,95089,87,FTN,P,3,2,<lshift>,1,622
321,1,95958,88,FTN,O,3,2,<lshift>,1,666
321,1,96623,89,FTN,F,3,1,<rshift>,1,462
321,1,97363,90,FTN,T,3,1,<rshift>,1,538
321,1,97972,91,FTN,T,3,1,<rshift>,1,406
321,1,98606,92,FTN,O,3,2,<lshift>,1,431
321,1,99423,93,FTN,D,3,2,<lshift>,1,617
321,1,100168,94,FTN,N,3,1,<rshift>,1,543
321,1,100829,95,FTN,T,3,1,<rshift>,1,457
321,1,101615,96,FTN,O,3,2,<lshift>,1,584
321,1,102310,97,FTN,F,3,1,<rshift>,1,492
321,1,102942,98,FTN,T,3,1,<rshift>,1,430
321,1,103696,99,FTN,N,3,1,<rshift>,1,551
321,1,104417,100,FTN,P,3,2,<lshift>,1,517
321,1,107903,101,NT,U,2,2,<lshift>,1,667
321,1,108662,102,NT,T,2,1,<rshift>,1,557
321,1,109468,103,NT,N,2,1,<rshift>,1,603
321,1,110213,104,NT,P,2,2,<lshift>,1,543
321,1,110968,105,NT,N,2,1,<rshift>,1,551
321,1,111679,106,NT,P,2,2,<lshift>,1,508
321,1,112294,107,NT,T,2,1,<rshift>,1,415
321,1,112898,108,NT,N,2,1,<rshift>,1,402
321,1,113559,109,NT,T,2,1,<rshift>,1,459
321,1,114285,110,NT,U,2,2,<lshift>,1,522
321,1,115122,111,NT,N,2,1,<rshift>,1,634
321,1,115867,112,NT,D,2,2,<lshift>,1,544
321,1,116680,113,NT,T,2,1,<rshift>,1,609
321,1,117304,114,NT,N,2,1,<rshift>,1,421
321,1,118033,115,NT,O,2,2,<lshift>,1,526
321,1,118884,116,NT,P,2,2,<lshift>,1,649
321,1,119546,117,NT,T,2,1,<rshift>,1,460
321,1,120397,118,NT,D,2,2,<lshift>,1,649
321,1,121074,119,NT,C,2,2,<lshift>,1,473
321,1,121810,120,NT,T,2,1,<lshift>,0,534
321,1,122640,121,NT,D,2,2,<lshift>,1,627
321,1,123362,122,NT,D,2,2,<lshift>,1,519
321,1,124158,123,NT,U,2,2,<lshift>,1,594
321,1,125388,124,NT,T,2,1,<rshift>,1,1026
321,1,126020,125,NT,N,2,1,<rshift>,1,428
321,1,128168,126,K,C,1,2,<lshift>,1,906
321,1,128863,127,K,K,1,1,<rshift>,1,492
321,1,129553,128,K,K,1,1,<rshift>,1,488
321,1,130145,129,K,K,1,1,<rshift>,1,388
321,1,130813,130,K,D,1,2,<lshift>,1,464
321,1,131497,131,K,K,1,1,<rshift>,1,482
321,1,132206,132,K,U,1,2,<lshift>,1,506
321,1,132864,133,K,K,1,1,<rshift>,1,458
321,1,133565,134,K,D,1,2,<lshift>,1,498
321,1,134188,135,K,P,1,2,<lshift>,1,422
321,1,134926,136,K,K,1,1,<rshift>,1,534
321,1,135661,137,K,P,1,2,<rshift>,0,531
321,1,136653,138,K,U,1,2,<lshift>,1,790
321,1,137327,139,K,U,1,2,<lshift>,1,470
321,1,137992,140,K,K,1,1,<rshift>,1,462
321,1,138706,141,K,K,1,1,<rshift>,1,511
321,1,139385,142,K,O,1,2,<lshift>,1,476
321,1,140215,143,K,K,1,1,<rshift>,1,629
321,1,141056,144,K,C,1,2,<lshift>,1,641
321,1,141780,145,K,U,1,2,<lshift>,1,522
321,1,142495,146,K,K,1,1,<rshift>,1,513
321,1,143425,147,K,D,1,2,<lshift>,1,727
321,1,144335,148,K,K,1,1,<rshift>,1,709
321,1,145453,149,K,K,1,1,<rshift>,1,915
321,1,146231,150,K,K,1,1,<rshift>,1,573
321,1,149167,151,NTJK,T,4,1,<rshift>,1,651
321,1,149881,152,NTJK,J,4,1,<rshift>,1,511
321,1,150519,153,NTJK,T,4,1,<rshift>,1,435
321,1,151197,154,NTJK,N,4,1,<rshift>,1,472
321,1,151974,155,NTJK,U,4,2,<lshift>,1,573
321,1,152928,156,NTJK,C,4,2,<lshift>,1,750
321,1,153620,157,NTJK,O,4,2,<lshift>,1,488
321,1,154408,158,NTJK,T,4,1,<rshift>,1,587
321,1,155052,159,NTJK,O,4,2,<lshift>,1,441
321,1,155902,160,NTJK,J,4,1,<rshift>,1,647
321,1,156831,161,NTJK,U,4,2,<rshift>,0,727
321,1,157567,162,NTJK,C,4,2,<lshift>,1,532
321,1,158321,163,NTJK,T,4,1,<rshift>,1,550
321,1,159112,164,NTJK,T,4,1,<rshift>,1,586
321,1,159863,165,NTJK,T,4,1,<rshift>,1,548
321,1,160556,166,NTJK,T,4,1,<rshift>,1,490
321,1,161501,167,NTJK,J,4,1,<rshift>,1,743
321,1,162315,168,NTJK,P,4,2,<lshift>,1,611
321,1,163124,169,NTJK,J,4,1,<rshift>,1,607
321,1,164414,170,NTJK,U,4,2,<lshift>,1,1086
321,1,165408,171,NTJK,P,4,2,<lshift>,1,793
321,1,166253,172,NTJK,K,4,1,<rshift>,1,642
321,1,166870,173,NTJK,D,4,2,<lshift>,1,414
321,1,167562,174,NTJK,C,4,2,<lshift>,1,490
321,1,168180,175,NTJK,U,4,2,<lshift>,1,417
321,1,170111,176,T,T,1,1,<rshift>,1,460
321,1,170789,177,T,C,1,2,<lshift>,1,476
321,1,171425,178,T,T,1,1,<rshift>,1,432
321,1,172099,179,T,C,1,2,<lshift>,1,471
321,1,172764,180,T,T,1,1,<rshift>,1,464
321,1,173442,181,T,T,1,1,<rshift>,1,475
321,1,174257,182,T,T,1,1,<rshift>,1,612
321,1,175770,183,T,D,1,2,<lshift>,1,1310
321,1,176858,184,T,D,1,2,<lshift>,1,884
321,1,177545,185,T,T,1,1,<rshift>,1,483
321,1,178198,186,T,T,1,1,<rshift>,1,451
321,1,178925,187,T,C,1,2,<lshift>,1,525
321,1,179633,188,T,U,1,2,<lshift>,1,505
321,1,180310,189,T,T,1,1,<rshift>,1,474
321,1,181241,190,T,O,1,2,<lshift>,1,729
321,1,182154,191,T,U,1,2,<lshift>,1,710
321,1,183017,192,T,T,1,1,<rshift>,1,661
321,1,183707,193,T,U,1,2,<lshift>,1,488
321,1,184435,194,T,T,1,1,<rshift>,1,526
321,1,185032,195,T,T,1,1,<rshift>,1,395
321,1,185602,196,T,T,1,1,<rshift>,1,368
321,1,186313,197,T,C,1,2,<lshift>,1,510
321,1,186991,198,T,O,1,2,<lshift>,1,477
321,1,187666,199,T,T,1,1,<rshift>,1,472
321,1,188546,200,T,D,1,2,<lshift>,1,675
