subnum,screensize,block,trial,direction,stim,fixationstart,delaytime,promptstart,arrowstart,maskstart,rt,corresp,resp,corr,bivalentcorr
1515,1920x1080,P,0,-1,U,54128,1500,55628,56130,56130,718,<up>,<up>,1,1
1515,1920x1080,P,0,1,D,56851,2500,59351,59853,59853,510,<down>,<down>,1,1
1515,1920x1080,P,0,-1,L,60369,2750,63120,63621,63621,614,<left>,<left>,1,1
1515,1920x1080,P,0,1,R,64237,2500,66737,67239,67239,700,<right>,<right>,1,1
1515,1920x1080,P,0,1,R,67947,3250,71198,71700,71700,619,<right>,<right>,1,1
1515,1920x1080,P,0,1,R,72320,2000,74320,74822,74822,660,<right>,<right>,1,1
1515,1920x1080,P,0,-1,R,75484,3000,78484,78987,78987,614,<right>,<right>,1,1
1515,1920x1080,P,0,1,R,79603,3000,82603,83104,83104,539,<right>,<right>,1,1
1515,1920x1080,P,0,-1,L,83645,2000,85645,86147,86147,703,<left>,<left>,1,1
1515,1920x1080,P,0,-1,D,86853,3250,90104,90605,90605,545,<down>,<down>,1,1
1515,1920x1080,P,0,1,R,97908,3250,101159,101411,101411,860,<right>,<up>,0,0
1515,1920x1080,P,0,-1,R,102272,1500,103772,104024,104024,884,<right>,<left>,0,1
1515,1920x1080,P,0,-1,R,104909,1750,106659,106911,106911,484,<right>,<right>,1,1
1515,1920x1080,P,0,1,D,107396,2250,109646,109898,109898,501,<down>,<down>,1,1
1515,1920x1080,P,0,1,U,110400,2250,112650,112902,112902,792,<up>,<down>,0,1
1515,1920x1080,P,0,1,L,113695,2250,115945,116197,116197,576,<left>,<left>,1,1
1515,1920x1080,P,0,1,R,116774,2750,119525,119779,119779,836,<right>,<right>,1,1
1515,1920x1080,P,0,-1,L,120616,2250,122866,123118,123118,559,<left>,<left>,1,1
1515,1920x1080,P,0,-1,R,123678,1500,125178,125430,125430,541,<right>,<left>,0,1
1515,1920x1080,P,0,-1,R,125972,3500,129473,129724,129724,838,<right>,<right>,1,1
1515,1920x1080,P,0,1,D,130562,3500,134064,134316,134316,713,<down>,<up>,0,1
1515,1920x1080,P,0,-1,D,135030,1500,136531,136783,136783,648,<down>,<down>,1,1
1515,1920x1080,P,0,-1,D,137432,2250,139682,139934,139934,515,<down>,<down>,1,1
1515,1920x1080,P,0,-1,R,140450,3000,143450,143701,143701,688,<right>,<left>,0,1
1515,1920x1080,P,0,1,R,144390,1500,145891,146143,146143,815,<right>,<left>,0,1
1515,1920x1080,P,0,-1,D,146959,1500,148460,148712,148712,723,<down>,<down>,1,1
1515,1920x1080,P,0,-1,R,149436,3000,152437,152688,152688,542,<right>,<right>,1,1
1515,1920x1080,P,0,1,L,153231,2750,155982,156233,156233,818,<left>,<left>,1,1
1515,1920x1080,P,0,-1,U,157052,2500,159553,159805,159805,661,<up>,<up>,1,1
1515,1920x1080,P,0,-1,U,160467,2750,163218,163470,163470,665,<up>,<up>,1,1
1515,1920x1080,P,0,-1,R,164136,2750,166886,167137,167137,586,<right>,<left>,0,1
1515,1920x1080,P,0,-1,R,167724,3000,170724,170976,170976,530,<right>,<left>,0,1
1515,1920x1080,T,1,1,R,177749,3500,181250,181502,181502,638,<right>,<left>,0,1
1515,1920x1080,T,2,1,R,182140,1500,183640,183892,183892,558,<right>,<left>,0,1
1515,1920x1080,T,3,-1,R,184451,2250,186702,186954,186954,723,<right>,<left>,0,1
1515,1920x1080,T,4,1,U,187678,3500,191179,191431,191431,620,<up>,<up>,1,1
1515,1920x1080,T,5,1,U,192052,3500,195553,195805,195805,652,<up>,<up>,1,1
1515,1920x1080,T,6,1,L,196458,3000,199458,199717,199717,600,<left>,<up>,0,0
1515,1920x1080,T,7,1,R,200318,2500,202818,203070,203070,945,<right>,<right>,1,1
1515,1920x1080,T,8,1,U,204015,2250,206265,206517,206517,546,<up>,<up>,1,1
1515,1920x1080,T,9,-1,R,207064,2250,209315,209567,209567,664,<right>,<left>,0,1
1515,1920x1080,T,10,-1,R,210232,3250,213482,213733,213733,542,<right>,<left>,0,1
1515,1920x1080,T,11,-1,L,214275,1500,215775,216027,216027,745,<left>,<left>,1,1
1515,1920x1080,T,12,1,L,216772,3250,220023,220274,220274,805,<left>,<left>,1,1
1515,1920x1080,T,13,-1,U,221079,3500,224579,224831,224831,551,<up>,<up>,1,1
1515,1920x1080,T,14,1,R,225383,3250,228634,228886,228886,681,<right>,<left>,0,1
1515,1920x1080,T,15,1,R,229568,1500,231068,231318,231319,631,<right>,<left>,0,1
1515,1920x1080,T,16,1,R,231951,2250,234201,234452,234452,598,<right>,<left>,0,1
1515,1920x1080,T,17,1,R,235051,2750,237801,238053,238053,717,<right>,<right>,1,1
1515,1920x1080,T,18,-1,U,238771,2500,241272,241524,241524,538,<up>,<up>,1,1
1515,1920x1080,T,19,-1,R,242062,2000,244062,244314,244314,536,<right>,<left>,0,1
1515,1920x1080,T,20,-1,L,244851,3000,247851,248103,248103,518,<left>,<left>,1,1
1515,1920x1080,T,21,1,U,248622,3250,251872,252124,252124,581,<up>,<up>,1,1
1515,1920x1080,T,22,-1,U,252706,2250,254957,255209,255209,540,<up>,<up>,1,1
1515,1920x1080,T,23,1,U,255749,3500,259250,259502,259502,588,<up>,<up>,1,1
1515,1920x1080,T,24,1,R,260091,2500,262591,262842,262842,711,<right>,<right>,1,1
1515,1920x1080,T,25,-1,U,263554,2750,266305,266557,266557,576,<up>,<up>,1,1
1515,1920x1080,T,26,-1,D,267133,1750,268883,269135,269135,608,<down>,<up>,0,1
1515,1920x1080,T,27,1,L,269744,3250,272994,273246,273246,688,<left>,<left>,1,1
1515,1920x1080,T,28,-1,R,273935,2250,276185,276438,276438,1265,<right>,<right>,1,1
1515,1920x1080,T,29,-1,R,277705,2500,280205,280456,280456,653,<right>,<left>,0,1
1515,1920x1080,T,30,1,D,281109,1750,282860,283112,283112,604,<down>,<up>,0,1
1515,1920x1080,T,31,-1,R,283716,1750,285466,285718,285718,978,<right>,<left>,0,1
1515,1920x1080,T,32,-1,U,286697,3000,289697,289948,289948,567,<up>,<up>,1,1
1515,1920x1080,T,33,1,D,290516,2250,292767,293019,293019,547,<down>,<down>,1,1
1515,1920x1080,T,34,-1,U,293566,3000,296566,296818,296818,779,<up>,<down>,0,1
1515,1920x1080,T,35,-1,U,297597,3250,300848,301100,301100,530,<up>,<up>,1,1
1515,1920x1080,T,36,1,R,301631,2750,304381,304632,304632,679,<right>,<right>,1,1
1515,1920x1080,T,37,-1,U,305312,1750,307062,307313,307313,721,<up>,<down>,0,1
1515,1920x1080,T,38,-1,L,308035,2750,310786,311038,311038,911,<left>,<left>,1,1
1515,1920x1080,T,39,-1,R,311949,1500,313449,313699,313699,552,<right>,<left>,0,1
1515,1920x1080,T,40,1,D,314252,2750,317002,317254,317254,663,<down>,<up>,0,1
1515,1920x1080,T,41,-1,D,317918,2250,320169,320421,320421,924,<down>,<down>,1,1
1515,1920x1080,T,42,1,U,321346,3500,324846,325098,325098,877,<up>,<up>,1,1
1515,1920x1080,T,43,-1,R,325976,3250,329227,329478,329478,548,<right>,<left>,0,1
1515,1920x1080,T,44,-1,U,330027,3500,333527,333779,333779,667,<up>,<down>,0,1
1515,1920x1080,T,45,-1,L,334447,2000,336447,336699,336699,1583,<left>,<right>,0,1
1515,1920x1080,T,46,1,L,338282,3250,341533,341785,341785,777,<left>,<left>,1,1
1515,1920x1080,T,47,-1,D,342563,2500,345064,345316,345316,990,<down>,<up>,0,1
1515,1920x1080,T,48,-1,R,346306,1500,347806,348056,348056,1039,<right>,<right>,1,1
1515,1920x1080,T,49,1,D,349095,3250,352345,352597,352597,871,<down>,<up>,0,1
1515,1920x1080,T,50,1,R,353469,2250,355719,355971,355971,929,<right>,<left>,0,1
1515,1920x1080,T,51,1,R,356901,2500,359401,359653,359653,767,<right>,<right>,1,1
1515,1920x1080,T,52,-1,R,360421,1500,361922,362174,362174,699,<right>,<left>,0,1
1515,1920x1080,T,53,1,R,362874,3000,365874,366126,366126,873,<right>,<left>,0,1
1515,1920x1080,T,54,1,L,367000,2750,369751,370003,370003,651,<left>,<right>,0,1
1515,1920x1080,T,55,1,R,370655,3000,373656,373907,373907,839,<right>,<right>,1,1
1515,1920x1080,T,56,-1,R,374747,2750,377497,377749,377749,794,<right>,<right>,1,1
1515,1920x1080,T,57,1,R,378544,2500,381045,381297,381297,752,<right>,<right>,1,1
1515,1920x1080,T,58,1,D,382050,3000,385050,385302,385302,625,<down>,<up>,0,1
1515,1920x1080,T,59,-1,L,385928,3000,388928,389180,389180,1002,<left>,<right>,0,1
1515,1920x1080,T,60,-1,R,390183,2000,392183,392435,392435,789,<right>,<right>,1,1
1515,1920x1080,T,61,-1,U,393225,2000,395226,395476,395476,676,<up>,<up>,1,1
1515,1920x1080,T,62,1,D,396153,1750,397904,398155,398155,626,<down>,<down>,1,1
1515,1920x1080,T,63,-1,U,398781,2000,400782,401034,401034,647,<up>,<down>,0,1
1515,1920x1080,T,64,-1,U,401682,2500,404183,404435,404435,596,<up>,<down>,0,1
1515,1920x1080,T,65,-1,D,405032,3500,408533,408785,408785,629,<down>,<down>,1,1
1515,1920x1080,T,66,1,U,409415,2750,412165,412417,412417,583,<up>,<up>,1,1
1515,1920x1080,T,67,1,L,413000,1500,414500,414750,414750,691,<left>,<right>,0,1
1515,1920x1080,T,68,1,L,415442,2250,417693,417944,417944,711,<left>,<right>,0,1
1515,1920x1080,T,69,-1,D,418656,2250,420906,421158,421158,722,<down>,<up>,0,1
1515,1920x1080,T,70,1,U,421881,3000,424881,425132,425132,614,<up>,<down>,0,1
1515,1920x1080,T,71,-1,U,425747,3500,429248,429499,429499,678,<up>,<up>,1,1
1515,1920x1080,T,72,1,L,430178,3250,433428,433679,433679,794,<left>,<right>,0,1
1515,1920x1080,T,73,-1,L,434474,2750,437225,437477,437477,992,<left>,<left>,1,1
1515,1920x1080,T,74,-1,U,438470,2250,440721,440973,440973,752,<up>,<down>,0,1
1515,1920x1080,T,75,1,L,441726,3000,444726,444978,444978,534,<left>,<left>,1,1
1515,1920x1080,T,76,-1,R,445513,2500,448014,448266,448266,512,<right>,<right>,1,1
1515,1920x1080,T,77,-1,U,448779,2750,451530,451782,451782,565,<up>,<up>,1,1
1515,1920x1080,T,78,1,L,452348,1500,453849,454100,454100,645,<left>,<left>,1,1
1515,1920x1080,T,79,-1,U,454745,3000,457746,457998,457998,918,<up>,<up>,1,1
1515,1920x1080,T,80,1,L,458917,3500,462418,462670,462670,804,<left>,<right>,0,1
1515,1920x1080,T,81,-1,R,463475,3500,466976,467228,467228,786,<right>,<left>,0,1
1515,1920x1080,T,82,1,L,468015,2250,470265,470518,470518,842,<left>,<left>,1,1
1515,1920x1080,T,83,-1,L,471361,3250,474612,474864,474864,555,<left>,<left>,1,1
1515,1920x1080,T,84,1,R,475420,2250,477670,477922,477922,745,<right>,<left>,0,1
1515,1920x1080,T,85,-1,R,478668,1750,480419,480670,480671,756,<right>,<right>,1,1
1515,1920x1080,T,86,-1,D,481428,2500,483928,484180,484180,545,<down>,<down>,1,1
1515,1920x1080,T,87,1,U,484726,3250,487976,488228,488228,740,<up>,<down>,0,1
1515,1920x1080,T,88,1,D,488968,2500,491468,491719,491719,670,<down>,<down>,1,1
1515,1920x1080,T,89,1,R,492390,2750,495140,495392,495392,582,<right>,<left>,0,1
1515,1920x1080,T,90,1,R,495975,2250,498226,498478,498478,813,<right>,<right>,1,1
