subnum,block,type,trial,type,stim,time0,resp1,rt1,corr1,resp2,rt2,corr2,tooslow
1131,1,PRACTICE,-25,1,2,6646,1,588,0,NA,0,0,1
1131,1,PRACTICE,-24,1,3,8288,1,617,1,NA,0,0,1
1131,1,PRACTICE,-23,1,4,9974,2,384,1,NA,0,0,1
1131,1,PRACTICE,-22,1,1,11313,1,545,1,NA,0,0,1
1131,1,PRACTICE,-21,1,4,12743,2,381,1,NA,0,0,1
1131,1,PRACTICE,-20,1,2,14330,2,388,1,NA,0,0,1
1131,1,PRACTICE,-19,1,1,15862,1,409,1,NA,0,0,1
1131,1,PRACTICE,-18,1,3,17459,1,410,1,NA,0,0,1
1131,1,TEST,1,1,4,18735,2,387,1,NA,0,0,1
1131,1,TEST,2,1,3,20288,1,419,1,NA,0,0,1
1131,1,TEST,3,1,2,21560,2,444,1,NA,0,0,1
1131,1,TEST,4,1,1,23271,1,456,1,NA,0,0,1
1131,1,TEST,5,1,4,24541,2,415,1,NA,0,0,1
1131,1,TEST,6,1,2,26024,2,433,1,NA,0,0,1
1131,1,TEST,7,1,3,27708,1,391,1,NA,0,0,1
1131,1,TEST,8,1,1,29331,1,503,1,NA,0,0,1
1131,1,TEST,9,1,3,31015,1,502,1,NA,0,0,1
1131,1,TEST,10,1,1,32543,1,356,1,NA,0,0,1
1131,1,TEST,11,1,4,34180,2,320,1,NA,0,0,1
1131,1,TEST,12,1,2,35644,2,390,1,NA,0,0,1
1131,1,TEST,13,1,3,36946,1,428,1,NA,0,0,1
1131,1,TEST,14,1,2,38265,2,596,1,NA,0,0,1
1131,1,TEST,15,1,4,40084,2,445,1,NA,0,0,1
1131,1,TEST,16,1,1,41361,1,427,1,NA,0,0,1
1131,1,TEST,17,1,2,42682,2,386,1,NA,0,0,1
1131,1,TEST,18,1,3,43899,1,531,1,NA,0,0,1
1131,1,TEST,19,1,1,45680,1,399,1,NA,0,0,1
1131,1,TEST,20,1,4,47287,2,398,1,NA,0,0,1
1131,1,TEST,21,1,2,48825,2,299,1,NA,0,0,1
1131,1,TEST,22,1,3,50368,1,441,1,NA,0,0,1
1131,1,TEST,23,1,1,51729,1,562,1,NA,0,0,1
1131,1,TEST,24,1,4,53437,2,484,1,NA,0,0,1
1131,1,TEST,25,1,3,54914,1,653,1,NA,0,0,1
1131,2,PRACTICE,-25,2,3,71982,NA,0,0,0,488,1,1
1131,2,PRACTICE,-24,2,4,73585,NA,0,0,0,896,1,1
1131,2,PRACTICE,-23,2,2,75566,NA,0,0,9,382,1,1
1131,2,PRACTICE,-22,2,1,77031,NA,0,0,0,372,0,1
1131,2,PRACTICE,-21,2,4,78326,NA,0,0,0,464,1,1
1131,2,PRACTICE,-20,2,1,80073,NA,0,0,9,359,1,1
1131,2,PRACTICE,-19,2,2,81477,NA,0,0,9,381,1,1
1131,2,PRACTICE,-18,2,3,83034,NA,0,0,0,598,1,1
1131,2,TEST,1,2,3,84533,NA,0,0,0,395,1,1
1131,2,TEST,2,2,4,85802,NA,0,0,0,375,1,1
1131,2,TEST,3,2,1,87325,NA,0,0,9,374,1,1
1131,2,TEST,4,2,2,88698,NA,0,0,0,552,0,1
1131,2,TEST,5,2,4,90295,NA,0,0,9,319,0,1
1131,2,TEST,6,2,1,91845,NA,0,0,0,278,0,1
1131,2,TEST,7,2,3,93303,NA,0,0,9,320,0,1
1131,2,TEST,8,2,2,94755,NA,0,0,9,587,1,1
1131,2,TEST,9,2,3,96177,NA,0,0,0,382,1,1
1131,2,TEST,10,2,1,97514,NA,0,0,9,370,1,1
1131,2,TEST,11,2,2,99126,NA,0,0,9,300,1,1
1131,2,TEST,12,2,4,100311,NA,0,0,0,441,1,1
1131,2,TEST,13,2,2,101885,NA,0,0,0,267,0,1
1131,2,TEST,14,2,1,103336,NA,0,0,9,867,1,1
1131,2,TEST,15,2,3,105077,NA,0,0,0,467,1,1
1131,2,TEST,16,2,4,106470,NA,0,0,9,1666,0,1
1131,2,TEST,17,2,3,109101,NA,0,0,0,451,1,1
1131,2,TEST,18,2,1,110592,NA,0,0,9,519,1,1
1131,2,TEST,19,2,2,112218,NA,0,0,0,4006,0,1
1131,2,TEST,20,2,4,117459,NA,0,0,9,1641,0,1
1131,2,TEST,21,2,1,120081,NA,0,0,9,591,1,1
1131,2,TEST,22,2,2,121743,NA,0,0,0,808,0,1
1131,2,TEST,23,2,4,123383,NA,0,0,0,457,1,1
1131,2,TEST,24,2,3,124899,NA,0,0,9,282,0,1
1131,2,TEST,25,2,1,126059,NA,0,0,9,460,1,1
1131,3,PRACTICE,-25,3,4,133505,2,1514,1,0,2043,1,1
1131,3,PRACTICE,-24,3,2,136646,2,1712,1,9,1289,1,1
1131,3,PRACTICE,-23,3,3,139470,1,1110,1,0,635,1,1
1131,3,PRACTICE,-22,3,1,141726,1,1971,1,9,1503,1,1
1131,3,PRACTICE,-21,3,1,144863,1,491,1,9,516,1,1
1131,3,PRACTICE,-20,3,2,146562,2,892,1,0,892,0,1
1131,3,PRACTICE,-19,3,3,148433,1,1101,1,0,773,1,1
1131,3,PRACTICE,-18,3,4,150644,2,717,1,0,491,1,1
1131,3,TEST,1,3,2,152444,2,2229,1,9,709,1,1
1131,3,TEST,2,3,3,155509,1,962,1,0,449,1,1
1131,3,TEST,3,3,4,157666,2,735,1,0,567,1,1
1131,3,TEST,4,3,1,159319,2,795,0,9,685,1,1
1131,3,TEST,5,3,2,161393,2,1451,1,9,1476,1,1
1131,3,TEST,6,3,1,163981,1,608,1,9,634,1,1
1131,3,TEST,7,3,4,165746,2,651,1,0,650,1,1
1131,3,TEST,8,3,3,167681,1,884,1,0,919,1,1
1131,3,TEST,9,3,2,169758,1,441,0,9,441,1,1
1131,3,TEST,10,3,3,171201,1,745,1,9,744,0,1
1131,3,TEST,11,3,4,172972,2,1788,1,0,1633,1,1
1131,3,TEST,12,3,1,175755,1,710,1,9,709,1,1
1131,3,TEST,13,3,4,177771,1,747,0,0,746,1,1
1131,3,TEST,14,3,3,179461,1,2110,1,0,2109,1,1
1131,3,TEST,15,3,2,182664,1,1023,0,9,1023,1,1
1131,3,TEST,16,3,1,184824,1,1427,1,9,903,1,1
1131,3,TEST,17,3,4,187368,2,858,1,0,476,1,1
1131,3,TEST,18,3,1,189496,1,594,1,9,593,1,1
1131,3,TEST,19,3,3,191362,2,1126,0,9,1189,0,1
1131,3,TEST,20,3,2,193369,1,1555,0,9,1555,1,1
1131,3,TEST,21,3,1,196068,1,1004,1,9,1029,1,1
1131,3,TEST,22,3,2,198283,1,841,0,9,840,1,1
1131,3,TEST,23,3,4,200412,2,645,1,9,670,0,1
1131,3,TEST,24,3,3,202160,2,683,0,0,436,1,1
1131,3,TEST,25,3,4,203821,1,621,0,0,467,1,1
1131,4,PRACTICE,-25,1,4,228644,2,466,1,NA,0,0,1
1131,4,PRACTICE,-24,1,3,230212,1,397,1,NA,0,0,1
1131,4,PRACTICE,-23,1,2,231522,2,388,1,NA,0,0,1
1131,4,PRACTICE,-22,1,1,233177,1,506,1,NA,0,0,1
1131,4,PRACTICE,-21,1,1,234830,1,582,1,NA,0,0,1
1131,4,PRACTICE,-20,1,4,236604,2,382,1,NA,0,0,1
1131,4,PRACTICE,-19,1,3,238279,1,502,1,NA,0,0,1
1131,4,PRACTICE,-18,1,2,239790,2,835,1,NA,0,0,1
1131,4,TEST,1,1,3,241573,1,478,1,NA,0,0,1
1131,4,TEST,2,1,2,243213,2,361,1,NA,0,0,1
1131,4,TEST,3,1,4,244643,2,487,1,NA,0,0,1
1131,4,TEST,4,1,1,246055,1,439,1,NA,0,0,1
1131,4,TEST,5,1,4,247710,2,467,1,NA,0,0,1
1131,4,TEST,6,1,2,249312,1,693,0,NA,0,0,1
1131,4,TEST,7,1,3,251047,1,955,1,NA,0,0,1
1131,4,TEST,8,1,1,253058,1,643,1,NA,0,0,1
1131,4,TEST,9,1,4,254725,2,441,1,NA,0,0,1
1131,4,TEST,10,1,2,256131,2,773,1,NA,0,0,1
1131,4,TEST,11,1,1,257765,1,472,1,NA,0,0,1
1131,4,TEST,12,1,3,259114,1,641,1,NA,0,0,1
1131,4,TEST,13,1,4,260657,2,691,1,NA,0,0,1
1131,4,TEST,14,1,2,262350,2,663,1,NA,0,0,1
1131,4,TEST,15,1,1,264120,1,1007,1,NA,0,0,1
1131,4,TEST,16,1,3,265943,1,2799,1,NA,0,0,1
1131,4,TEST,17,1,2,269656,2,468,1,NA,0,0,1
1131,4,TEST,18,1,3,271126,1,572,1,NA,0,0,1
1131,4,TEST,19,1,4,272713,2,502,1,NA,0,0,1
1131,4,TEST,20,1,1,274149,1,488,1,NA,0,0,1
1131,4,TEST,21,1,4,275561,2,590,1,NA,0,0,1
1131,4,TEST,22,1,1,277026,1,435,1,NA,0,0,1
1131,4,TEST,23,1,2,278694,1,483,0,NA,0,0,1
1131,4,TEST,24,1,3,280353,2,2191,0,NA,0,0,1
1131,4,TEST,25,1,4,283713,2,1460,1,NA,0,0,1
1131,5,PRACTICE,-25,2,1,294600,NA,0,0,9,562,1,1
1131,5,PRACTICE,-24,2,2,296238,NA,0,0,0,301,0,1
1131,5,PRACTICE,-23,2,4,297450,NA,0,0,9,366,0,1
1131,5,PRACTICE,-22,2,3,298742,NA,0,0,0,496,1,1
1131,5,PRACTICE,-21,2,2,300495,NA,0,0,9,508,1,1
1131,5,PRACTICE,-20,2,1,302006,NA,0,0,9,468,1,1
1131,5,PRACTICE,-19,2,3,303398,NA,0,0,0,444,1,1
1131,5,PRACTICE,-18,2,4,305016,NA,0,0,0,350,1,1
1131,5,TEST,1,2,1,306204,NA,0,0,9,510,1,1
1131,5,TEST,2,2,3,307859,NA,0,0,9,350,0,1
1131,5,TEST,3,2,2,309462,NA,0,0,9,517,1,1
1131,5,TEST,4,2,4,311208,NA,0,0,0,466,1,1
1131,5,TEST,5,2,3,312610,NA,0,0,0,631,1,1
1131,5,TEST,6,2,4,314166,NA,0,0,0,424,1,1
1131,5,TEST,7,2,1,315408,NA,0,0,9,377,1,1
1131,5,TEST,8,2,2,316816,NA,0,0,9,424,1,1
1131,5,TEST,9,2,4,318355,NA,0,0,0,481,1,1
1131,5,TEST,10,2,3,319857,NA,0,0,0,494,1,1
1131,5,TEST,11,2,1,321170,NA,0,0,9,602,1,1
1131,5,TEST,12,2,2,322779,NA,0,0,9,573,1,1
1131,5,TEST,13,2,4,324195,NA,0,0,0,397,1,1
1131,5,TEST,14,2,3,325823,NA,0,0,9,420,0,1
1131,5,TEST,15,2,2,327219,NA,0,0,9,463,1,1
1131,5,TEST,16,2,1,328781,NA,0,0,9,447,1,1
1131,5,TEST,17,2,4,330235,NA,0,0,0,387,1,1
1131,5,TEST,18,2,3,331432,NA,0,0,0,494,1,1
1131,5,TEST,19,2,2,332811,NA,0,0,0,715,0,1
1131,5,TEST,20,2,1,334644,NA,0,0,9,366,1,1
1131,5,TEST,21,2,2,335859,NA,0,0,9,367,1,1
1131,5,TEST,22,2,3,337322,NA,0,0,0,440,1,1
1131,5,TEST,23,2,4,338809,NA,0,0,0,307,1,1
1131,5,TEST,24,2,1,340410,NA,0,0,9,610,1,1
1131,5,TEST,25,2,2,341886,NA,0,0,9,290,1,1
1131,6,PRACTICE,-25,3,1,347122,1,637,1,9,711,1,1
1131,6,PRACTICE,-24,3,2,348717,2,895,1,0,894,0,1
1131,6,PRACTICE,-23,3,4,350487,2,1135,1,0,1134,1,1
1131,6,PRACTICE,-22,3,3,352632,1,3471,1,9,3497,0,1
1131,6,PRACTICE,-21,3,3,357008,1,1588,1,0,1588,1,1
1131,6,PRACTICE,-20,3,1,359666,1,737,1,9,737,1,1
1131,6,PRACTICE,-19,3,2,361369,2,1922,1,9,1939,1,1
1131,6,PRACTICE,-18,3,4,364195,2,781,1,0,781,1,1
1131,6,TEST,1,3,3,365970,1,1992,1,0,1992,1,1
1131,6,TEST,2,3,4,369187,2,714,1,0,713,1,1
1131,6,TEST,3,3,2,371008,2,1627,1,9,1626,1,1
1131,6,TEST,4,3,1,373563,1,904,1,9,903,1,1
1131,6,TEST,5,3,4,375651,2,540,1,0,564,1,1
1131,6,TEST,6,3,3,377080,1,3117,1,0,3117,1,1
1131,6,TEST,7,3,1,381487,1,706,1,9,705,1,1
1131,6,TEST,8,3,2,383016,2,941,1,0,941,0,1
1131,6,TEST,9,3,3,384876,1,1715,1,0,1714,1,1
1131,6,TEST,10,3,1,387440,1,867,1,9,866,1,1
1131,6,TEST,11,3,4,389267,2,1886,1,0,1903,1,1
1131,6,TEST,12,3,2,392220,1,737,0,9,737,1,1
1131,6,TEST,13,3,1,394178,1,2189,1,9,2223,1,1
1131,6,TEST,14,3,4,397541,2,677,1,0,695,1,1
1131,6,TEST,15,3,3,399206,1,964,1,0,964,1,1
1131,6,TEST,16,3,2,401006,1,714,0,9,713,1,1
1131,6,TEST,17,3,3,402527,2,1236,0,0,1236,1,1
1131,6,TEST,18,3,4,404714,2,2286,1,0,2286,1,1
1131,6,TEST,19,3,1,408300,1,1367,1,9,1366,1,1
1131,6,TEST,20,3,2,410748,2,2483,1,9,2518,1,1
1131,6,TEST,21,3,3,414209,2,904,0,0,884,1,1
1131,6,TEST,22,3,1,416414,1,644,1,9,644,1,1
1131,6,TEST,23,3,4,418141,2,783,1,0,783,1,1
1131,6,TEST,24,3,2,419738,2,2825,1,9,2824,1,1
1131,6,TEST,25,3,1,423444,1,1488,1,9,1513,1,1
1131,7,PRACTICE,-25,1,4,447635,2,1439,1,NA,0,0,1
1131,7,PRACTICE,-24,1,1,450342,1,511,1,NA,0,0,1
1131,7,PRACTICE,-23,1,2,451929,1,590,0,NA,0,0,1
1131,7,PRACTICE,-22,1,3,453654,1,717,1,NA,0,0,1
1131,7,PRACTICE,-21,1,2,455549,2,400,1,NA,0,0,1
1131,7,PRACTICE,-20,1,1,457199,1,325,1,NA,0,0,1
1131,7,PRACTICE,-19,1,3,458743,2,497,0,NA,0,0,1
1131,7,PRACTICE,-18,1,4,460307,2,584,1,NA,0,0,1
1131,7,TEST,1,1,4,461825,2,386,1,NA,0,0,1
1131,7,TEST,2,1,3,463125,1,384,1,NA,0,0,1
1131,7,TEST,3,1,2,464513,2,542,1,NA,0,0,1
1131,7,TEST,4,1,1,466332,1,413,1,NA,0,0,1
1131,7,TEST,5,1,2,467596,2,825,1,NA,0,0,1
1131,7,TEST,6,1,3,469272,1,416,1,NA,0,0,1
1131,7,TEST,7,1,4,470637,2,480,1,NA,0,0,1
1131,7,TEST,8,1,1,472069,1,511,1,NA,0,0,1
1131,7,TEST,9,1,4,473812,2,433,1,NA,0,0,1
1131,7,TEST,10,1,3,475367,1,614,1,NA,0,0,1
1131,7,TEST,11,1,2,477174,2,996,1,NA,0,0,1
1131,7,TEST,12,1,1,479273,1,526,1,NA,0,0,1
1131,7,TEST,13,1,2,480869,2,408,1,NA,0,0,1
1131,7,TEST,14,1,3,482352,1,691,1,NA,0,0,1
1131,7,TEST,15,1,1,484012,1,475,1,NA,0,0,1
1131,7,TEST,16,1,4,485781,2,535,1,NA,0,0,1
1131,7,TEST,17,1,1,487278,1,685,1,NA,0,0,1
1131,7,TEST,18,1,3,488869,1,580,1,NA,0,0,1
1131,7,TEST,19,1,2,490307,2,529,1,NA,0,0,1
1131,7,TEST,20,1,4,491903,2,399,1,NA,0,0,1
1131,7,TEST,21,1,1,493291,1,483,1,NA,0,0,1
1131,7,TEST,22,1,3,494803,1,301,1,NA,0,0,1
1131,7,TEST,23,1,4,496149,2,414,1,NA,0,0,1
1131,7,TEST,24,1,2,497855,2,527,1,NA,0,0,1
1131,7,TEST,25,1,4,499370,2,475,1,NA,0,0,1
1131,8,PRACTICE,-25,2,2,504695,NA,0,0,9,1000,1,1
1131,8,PRACTICE,-24,2,3,506890,NA,0,0,0,259,1,1
1131,8,PRACTICE,-23,2,1,508055,NA,0,0,9,524,1,1
1131,8,PRACTICE,-22,2,4,509487,NA,0,0,0,300,1,1
1131,8,PRACTICE,-21,2,1,511031,NA,0,0,9,273,1,1
1131,8,PRACTICE,-20,2,4,512591,NA,0,0,0,335,1,1
1131,8,PRACTICE,-19,2,2,513896,NA,0,0,9,879,1,1
1131,8,PRACTICE,-18,2,3,515712,NA,0,0,0,447,1,1
1131,8,TEST,1,2,1,516979,NA,0,0,0,362,0,1
1131,8,TEST,2,2,3,518301,NA,0,0,9,378,0,1
1131,8,TEST,3,2,2,519627,NA,0,0,9,473,1,1
1131,8,TEST,4,2,4,521338,NA,0,0,0,334,1,1
1131,8,TEST,5,2,3,522917,NA,0,0,9,324,0,1
1131,8,TEST,6,2,1,524460,NA,0,0,9,541,1,1
1131,8,TEST,7,2,2,525925,NA,0,0,9,488,1,1
1131,8,TEST,8,2,4,527601,NA,0,0,0,461,1,1
1131,8,TEST,9,2,1,529040,NA,0,0,9,515,1,1
1131,8,TEST,10,2,2,530823,NA,0,0,9,441,1,1
1131,8,TEST,11,2,4,532499,NA,0,0,0,480,1,1
1131,8,TEST,12,2,3,534274,NA,0,0,0,631,1,1
1131,8,TEST,13,2,4,535783,NA,0,0,0,364,1,1
1131,8,TEST,14,2,2,537111,NA,0,0,9,467,1,1
1131,8,TEST,15,2,1,538408,NA,0,0,9,614,1,1
1131,8,TEST,16,2,3,540248,NA,0,0,0,414,1,1
1131,8,TEST,17,2,4,541834,NA,0,0,0,566,1,1
1131,8,TEST,18,2,3,543450,NA,0,0,0,511,1,1
1131,8,TEST,19,2,2,545039,NA,0,0,9,467,1,1
1131,8,TEST,20,2,1,546709,NA,0,0,9,540,1,1
1131,8,TEST,21,2,4,548069,NA,0,0,0,470,1,1
1131,8,TEST,22,2,2,549421,NA,0,0,9,552,1,1
1131,8,TEST,23,2,3,550938,NA,0,0,0,409,1,1
1131,8,TEST,24,2,1,552259,NA,0,0,9,410,1,1
1131,8,TEST,25,2,4,553942,NA,0,0,0,249,1,1
1131,9,PRACTICE,-25,3,3,560252,2,767,0,0,767,1,1
1131,9,PRACTICE,-24,3,4,561933,2,773,1,0,791,1,1
1131,9,PRACTICE,-23,3,2,563782,1,641,0,9,641,1,1
1131,9,PRACTICE,-22,3,1,565432,1,550,1,9,671,1,1
1131,9,PRACTICE,-21,3,4,567198,2,819,1,0,819,1,1
1131,9,PRACTICE,-20,3,1,569039,1,672,1,9,672,1,1
1131,9,PRACTICE,-19,3,3,570810,1,1497,1,0,1516,1,1
1131,9,PRACTICE,-18,3,2,573222,1,884,0,9,914,1,1
1131,9,TEST,1,3,2,575007,2,1254,1,9,1253,1,1
1131,9,TEST,2,3,4,577122,2,1052,1,0,1051,1,1
1131,9,TEST,3,3,1,579342,1,674,1,9,674,1,1
1131,9,TEST,4,3,3,581165,1,1802,1,0,1802,1,1
1131,9,TEST,5,3,4,584082,2,764,1,0,764,1,1
1131,9,TEST,6,3,2,585856,1,745,0,9,745,1,1
1131,9,TEST,7,3,3,587683,1,2768,1,0,2768,1,1
1131,9,TEST,8,3,1,591339,1,711,1,9,729,1,1
1131,9,TEST,9,3,4,593337,2,625,1,0,650,1,1
1131,9,TEST,10,3,1,594872,1,574,1,9,573,1,1
1131,9,TEST,11,3,2,596351,2,1443,1,9,1460,1,1
1131,9,TEST,12,3,3,599114,2,617,0,0,651,1,1
1131,9,TEST,13,3,4,600848,2,637,1,0,636,1,1
1131,9,TEST,14,3,1,602428,1,779,1,9,805,1,1
1131,9,TEST,15,3,2,604147,2,1345,1,9,1344,1,1
1131,9,TEST,16,3,3,606437,1,1158,1,9,1205,0,1
1131,9,TEST,17,3,2,608725,2,1363,1,9,1363,1,1
1131,9,TEST,18,3,1,611080,1,987,1,9,987,1,1
1131,9,TEST,19,3,3,613124,2,1769,0,9,2079,0,1
1131,9,TEST,20,3,4,616136,2,1378,1,0,1377,1,1
1131,9,TEST,21,3,2,618490,1,2222,0,9,2575,1,1
1131,9,TEST,22,3,1,621974,1,954,1,9,953,1,1
1131,9,TEST,23,3,3,624085,1,1157,1,0,1358,1,1
1131,9,TEST,24,3,4,626442,2,734,1,0,1259,1,1
1131,9,TEST,25,3,1,628720,1,649,1,9,649,1,1
